"Disp (mm)" "Load (kN)" "d (raw)" "f (raw)"
0 0 0 0.01
0.0163 0.0071 0.0163 0.0177
0.0333 0.0242 0.0333 0.0348
0.0500 0.0413 0.0500 0.0520
0.0667 0.0589 0.0667 0.0696
0.0833 0.0771 0.0833 0.0877
0.1000 0.0946 0.1001 0.1053
0.1166 0.1116 0.1167 0.1222
0.1333 0.1294 0.1334 0.1400
0.1500 0.1467 0.1500 0.1573
0.1666 0.1654 0.1667 0.1761
0.1833 0.1835 0.1833 0.1942
0.2000 0.2028 0.2000 0.2134
0.2166 0.2222 0.2167 0.2329
0.2334 0.2419 0.2334 0.2525
0.2500 0.2609 0.2500 0.2715
0.2667 0.2810 0.2667 0.2916
0.2833 0.2944 0.2834 0.3051
0.3000 0.2965 0.3000 0.3072
0.3166 0.2997 0.3167 0.3103
0.3333 0.2998 0.3334 0.3104
0.3499 0.2999 0.3500 0.3105
0.3667 0.3000 0.3667 0.3107
0.3834 0.3000 0.3834 0.3107
0.4000 0.3005 0.4001 0.3111
0.4166 0.3012 0.4167 0.3118
0.4333 0.3010 0.4334 0.3117
0.4500 0.3012 0.4500 0.3119
0.4667 0.3014 0.4667 0.3120
0.4833 0.3014 0.4833 0.3120
0.5000 0.3017 0.5001 0.3123
0.5167 0.3018 0.5167 0.3124
0.5334 0.3018 0.5334 0.3125
0.5500 0.3016 0.5500 0.3122
0.5667 0.3030 0.5667 0.3136
0.5833 0.3062 0.5834 0.3168
0.6000 0.3190 0.6000 0.3297
0.6166 0.3410 0.6166 0.3516
0.6334 0.3629 0.6334 0.3736
0.6500 0.3863 0.6500 0.3970
0.6667 0.4095 0.6667 0.4202
0.6833 0.4338 0.6833 0.4444
0.7000 0.4582 0.7000 0.4688
0.7167 0.4829 0.7167 0.4936
0.7334 0.5080 0.7334 0.5186
0.7500 0.5337 0.7500 0.5443
0.7667 0.5597 0.7667 0.5703
0.7834 0.5856 0.7834 0.5962
0.8000 0.6118 0.8000 0.6225
0.8167 0.6416 0.8167 0.6522
0.8334 0.6694 0.8334 0.6800
0.8500 0.6980 0.8500 0.7086
0.8666 0.7276 0.8667 0.7382
0.8833 0.7585 0.8833 0.7691
0.9000 0.7891 0.9000 0.7997
0.9167 0.8208 0.9168 0.8314
0.9334 0.8516 0.9334 0.8622
0.9500 0.8817 0.9500 0.8923
0.9666 0.9123 0.9666 0.9229
0.9833 0.9434 0.9833 0.9540
1.0000 0.9751 1.0000 0.9857
1.0167 1.0067 1.0167 1.0173
1.0334 1.0378 1.0334 1.0485
1.0500 1.0693 1.0500 1.0800
1.0667 1.1020 1.0667 1.1127
1.0834 1.1337 1.0834 1.1443
1.1000 1.1687 1.1001 1.1793
1.1167 1.2093 1.1167 1.2200
1.1333 1.2500 1.1334 1.2607
1.1500 1.2926 1.1500 1.3032
1.1666 1.3355 1.1667 1.3461
1.1834 1.3784 1.1834 1.3890
1.2000 1.4234 1.2001 1.4341
1.2167 1.4717 1.2167 1.4824
1.2334 1.5203 1.2334 1.5309
1.2500 1.5692 1.2500 1.5798
1.2666 1.6198 1.2666 1.6305
1.2833 1.6710 1.2834 1.6816
1.3000 1.7231 1.3000 1.7337
1.3167 1.7770 1.3167 1.7876
1.3334 1.8320 1.3334 1.8426
1.3500 1.8870 1.3500 1.8977
1.3666 1.9435 1.3667 1.9541
1.3833 2.0007 1.3834 2.0114
1.3999 2.0585 1.4000 2.0691
1.4167 2.1161 1.4167 2.1268
1.4333 2.1760 1.4333 2.1866
1.4500 2.2359 1.4501 2.2466
1.4667 2.2946 1.4667 2.3053
1.4834 2.3552 1.4834 2.3658
1.5000 2.4151 1.5000 2.4258
1.5167 2.4757 1.5167 2.4863
1.5333 2.5372 1.5333 2.5478
1.5500 2.6000 1.5500 2.6106
1.5666 2.6635 1.5667 2.6741
1.5833 2.7268 1.5834 2.7374
1.6000 2.7900 1.6000 2.8006
1.6167 2.8523 1.6168 2.8629
1.6334 2.9135 1.6334 2.9242
1.6500 2.9729 1.6500 2.9836
1.6666 3.0352 1.6666 3.0458
1.6834 3.1010 1.6834 3.1117
1.7000 3.1642 1.7000 3.1748
1.7167 3.2296 1.7167 3.2403
1.7334 3.2937 1.7334 3.3043
1.7500 3.3600 1.7501 3.3706
1.7667 3.4258 1.7667 3.4364
1.7834 3.4907 1.7834 3.5013
1.8000 3.5560 1.8000 3.5666
1.8167 3.6231 1.8167 3.6338
1.8333 3.6895 1.8334 3.7001
1.8500 3.7567 1.8500 3.7673
1.8667 3.8241 1.8667 3.8347
1.8834 3.8929 1.8834 3.9035
1.9000 3.9614 1.9000 3.9720
1.9167 4.0293 1.9167 4.0400
1.9333 4.0975 1.9333 4.1081
1.9500 4.1663 1.9500 4.1769
1.9666 4.2328 1.9667 4.2435
1.9833 4.2994 1.9834 4.3101
2.0000 4.3672 2.0000 4.3778
2.0167 4.4335 2.0167 4.4442
2.0333 4.5010 2.0334 4.5117
2.0500 4.5686 2.0500 4.5792
2.0666 4.6366 2.0667 4.6472
2.0833 4.7042 2.0834 4.7149
2.1000 4.7704 2.1000 4.7810
2.1167 4.8397 2.1167 4.8504
2.1334 4.9079 2.1334 4.9185
2.1500 4.9765 2.1501 4.9871
2.1666 5.0453 2.1667 5.0560
2.1833 5.1134 2.1834 5.1241
2.2000 5.1811 2.2000 5.1917
2.2167 5.2491 2.2167 5.2598
2.2334 5.3164 2.2334 5.3271
2.2500 5.3805 2.2500 5.3912
2.2666 5.4338 2.2666 5.4445
2.2833 5.4357 2.2834 5.4463
2.3000 5.4763 2.3000 5.4870
2.3167 5.5419 2.3168 5.5526
2.3334 5.6067 2.3334 5.6173
2.3500 5.6745 2.3500 5.6852
2.3666 5.7449 2.3667 5.7555
2.3833 5.8137 2.3834 5.8244
2.4000 5.8836 2.4000 5.8942
2.4167 5.9543 2.4168 5.9649
2.4333 6.0238 2.4334 6.0344
2.4500 6.0933 2.4500 6.1040
2.4666 6.1631 2.4667 6.1737
2.4833 6.2341 2.4834 6.2448
2.5000 6.3041 2.5000 6.3148
2.5167 6.3730 2.5167 6.3836
2.5334 6.4438 2.5334 6.4544
2.5500 6.5116 2.5500 6.5222
2.5667 6.5809 2.5667 6.5916
2.5833 6.6517 2.5834 6.6623
2.6000 6.7206 2.6000 6.7312
2.6166 6.7922 2.6167 6.8028
2.6334 6.8622 2.6334 6.8728
2.6500 6.9326 2.6501 6.9433
2.6667 7.0014 2.6667 7.0120
2.6834 7.0707 2.6834 7.0814
2.7000 7.1394 2.7001 7.1501
2.7166 7.2101 2.7167 7.2207
2.7333 7.2798 2.7334 7.2905
2.7500 7.3481 2.7500 7.3587
2.7666 7.4189 2.7667 7.4295
2.7834 7.4872 2.7834 7.4979
2.8000 7.5559 2.8000 7.5665
2.8167 7.6241 2.8167 7.6348
2.8334 7.6878 2.8334 7.6985
2.8491 7.4356 2.8491 7.4462
2.8658 7.3465 2.8658 7.3571
2.8824 7.4213 2.8824 7.4320
2.8991 7.4961 2.8991 7.5067
2.9158 7.5690 2.9158 7.5797
2.9325 7.6435 2.9325 7.6541
2.9491 7.7174 2.9491 7.7280
2.9658 7.7913 2.9658 7.8020
2.9824 7.8611 2.9825 7.8718
2.9991 7.9312 2.9992 7.9418
3.0157 8.0026 3.0158 8.0133
3.0324 8.0748 3.0325 8.0854
3.0491 8.1463 3.0491 8.1569
3.0658 8.2173 3.0658 8.2280
3.0824 8.2869 3.0825 8.2975
3.0992 8.3565 3.0992 8.3672
3.1157 8.4248 3.1158 8.4354
3.1324 8.4916 3.1324 8.5023
3.1490 8.5571 3.1491 8.5677
3.1658 8.6238 3.1658 8.6344
3.1824 8.6921 3.1824 8.7027
3.1991 8.7599 3.1992 8.7705
3.2158 8.8289 3.2158 8.8395
3.2325 8.8979 3.2325 8.9086
3.2491 8.9642 3.2492 8.9748
3.2658 9.0335 3.2658 9.0442
3.2824 9.1001 3.2824 9.1107
3.2991 9.1665 3.2991 9.1771
3.3158 9.2347 3.3158 9.2453
3.3325 9.2997 3.3325 9.3103
3.3491 9.3641 3.3491 9.3747
3.3658 9.4212 3.3658 9.4319
3.3824 9.4809 3.3824 9.4916
3.3991 9.5441 3.3991 9.5548
3.4157 9.6077 3.4158 9.6183
3.4324 9.6706 3.4325 9.6812
3.4490 9.7350 3.4491 9.7456
3.4658 9.7994 3.4658 9.8100
3.4824 9.8641 3.4825 9.8748
3.4991 9.9295 3.4992 9.9401
3.5158 9.9937 3.5158 10.0044
3.5325 10.0594 3.5325 10.0701
3.5491 10.1242 3.5491 10.1349
3.5657 10.1892 3.5657 10.1998
3.5824 10.2552 3.5824 10.2659
3.5991 10.3205 3.5992 10.3312
3.6158 10.3861 3.6158 10.3967
3.6325 10.4520 3.6325 10.4627
3.6491 10.5145 3.6492 10.5252
3.6658 10.5722 3.6658 10.5828
3.6824 10.6277 3.6824 10.6384
3.6991 10.6870 3.6991 10.6976
3.7157 10.7515 3.7158 10.7621
3.7325 10.8181 3.7325 10.8288
3.7491 10.8832 3.7491 10.8938
3.7658 10.9493 3.7658 10.9600
3.7824 11.0154 3.7825 11.0261
3.7991 11.0807 3.7992 11.0913
3.8158 11.1472 3.8158 11.1578
3.8324 11.2118 3.8324 11.2225
3.8490 11.2767 3.8491 11.2874
3.8658 11.3445 3.8658 11.3551
3.8824 11.4103 3.8825 11.4209
3.8991 11.4769 3.8992 11.4875
3.9158 11.5415 3.9158 11.5521
3.9324 11.6063 3.9324 11.6170
3.9491 11.6726 3.9491 11.6832
3.9658 11.7377 3.9658 11.7483
3.9824 11.8031 3.9824 11.8138
3.9991 11.8684 3.9992 11.8791
4.0158 11.9346 4.0158 11.9452
4.0324 12.0008 4.0324 12.0115
4.0491 12.0684 4.0492 12.0791
4.0658 12.1342 4.0658 12.1449
4.0824 12.2002 4.0825 12.2108
4.0991 12.2629 4.0991 12.2735
4.1157 12.3278 4.1158 12.3384
4.1324 12.3940 4.1325 12.4046
4.1491 12.4576 4.1492 12.4682
4.1658 12.5213 4.1658 12.5320
4.1824 12.5859 4.1825 12.5966
4.1991 12.6507 4.1992 12.6613
4.2158 12.7191 4.2158 12.7298
4.2324 12.7859 4.2324 12.7965
4.2491 12.8504 4.2491 12.8610
4.2658 12.9181 4.2658 12.9287
4.2825 12.9825 4.2825 12.9932
4.2991 13.0475 4.2991 13.0582
4.3158 13.1126 4.3158 13.1232
4.3324 13.1741 4.3325 13.1848
4.3491 13.2379 4.3491 13.2485
4.3658 13.3024 4.3658 13.3130
4.3824 13.3676 4.3825 13.3783
4.3991 13.4304 4.3991 13.4410
4.4158 13.4948 4.4158 13.5054
4.4324 13.5570 4.4325 13.5677
4.4492 13.6146 4.4492 13.6253
4.4658 13.6616 4.4658 13.6722
4.4824 13.7213 4.4824 13.7320
4.4990 13.7845 4.4991 13.7951
4.5158 13.8506 4.5158 13.8612
4.5324 13.9206 4.5324 13.9313
4.5492 13.9905 4.5492 14.0011
4.5658 14.0601 4.5658 14.0708
4.5824 14.1292 4.5825 14.1399
4.5991 14.1979 4.5991 14.2085
4.6157 14.2662 4.6158 14.2769
4.6324 14.3340 4.6324 14.3446
4.6491 14.4032 4.6491 14.4139
4.6658 14.4724 4.6658 14.4831
4.6824 14.5434 4.6825 14.5540
4.6991 14.6144 4.6991 14.6251
4.7158 14.6889 4.7158 14.6995
4.7324 14.7659 4.7325 14.7765
4.7491 14.8409 4.7492 14.8516
4.7657 14.7953 4.7658 14.8059
4.7824 14.8332 4.7825 14.8438
4.7991 14.9160 4.7991 14.9266
4.8158 15.0048 4.8159 15.0155
4.8325 15.0866 4.8325 15.0972
4.8492 15.1608 4.8492 15.1715
4.8657 15.2369 4.8657 15.2476
4.8824 15.3170 4.8824 15.3277
4.8990 15.3954 4.8991 15.4060
4.9158 15.4765 4.9158 15.4871
4.9324 15.5556 4.9324 15.5662
4.9492 15.6365 4.9492 15.6471
4.9658 15.7141 4.9658 15.7248
4.9825 15.7875 4.9825 15.7982
4.9991 15.8593 4.9991 15.8699
5.0158 15.9358 5.0158 15.9465
5.0324 16.0171 5.0324 16.0277
5.0491 16.0981 5.0491 16.1087
5.0657 16.1799 5.0658 16.1905
5.0824 16.2655 5.0825 16.2762
5.0991 16.3508 5.0992 16.3614
5.1158 16.4377 5.1158 16.4484
5.1324 16.5238 5.1325 16.5345
5.1491 16.6135 5.1492 16.6241
5.1657 16.7036 5.1658 16.7142
5.1824 16.7942 5.1825 16.8048
5.1991 16.8844 5.1991 16.8951
5.2158 16.9792 5.2158 16.9898
5.2325 17.0718 5.2325 17.0825
5.2491 17.1674 5.2492 17.1780
5.2658 17.2627 5.2658 17.2733
5.2824 17.3567 5.2825 17.3673
5.2991 17.4515 5.2991 17.4622
5.3158 17.5473 5.3158 17.5580
5.3324 17.6424 5.3324 17.6530
5.3491 17.7405 5.3491 17.7511
5.3658 17.8404 5.3658 17.8510
5.3824 17.9384 5.3825 17.9491
5.3991 18.0385 5.3991 18.0492
5.4158 18.1397 5.4158 18.1504
5.4324 18.2394 5.4324 18.2500
5.4491 18.3422 5.4491 18.3529
5.4657 18.4415 5.4658 18.4522
5.4824 18.5437 5.4825 18.5544
5.4991 18.6466 5.4992 18.6572
5.5158 18.7480 5.5158 18.7586
5.5324 18.8524 5.5324 18.8630
5.5491 18.9559 5.5492 18.9665
5.5657 19.0582 5.5658 19.0688
5.5824 19.1648 5.5825 19.1755
5.5991 19.2704 5.5991 19.2810
5.6158 19.3768 5.6158 19.3874
5.6325 19.4777 5.6325 19.4883
5.6492 19.5830 5.6492 19.5936
5.6658 19.6881 5.6658 19.6987
5.6825 19.7966 5.6825 19.8073
5.6991 19.9070 5.6991 19.9177
5.7158 20.0247 5.7158 20.0354
5.7324 20.1420 5.7325 20.1527
5.7491 20.2591 5.7492 20.2698
5.7658 20.3783 5.7658 20.3889
5.7825 20.4969 5.7825 20.5075
5.7991 20.6189 5.7991 20.6296
5.8158 20.7451 5.8158 20.7557
5.8324 20.8700 5.8325 20.8806
5.8491 21.0034 5.8491 21.0141
5.8658 21.1389 5.8658 21.1495
5.8824 21.2787 5.8825 21.2893
5.8991 21.4171 5.8991 21.4277
5.9158 21.5557 5.9158 21.5664
5.9324 21.6927 5.9325 21.7034
5.9491 21.8321 5.9492 21.8427
5.9658 21.9696 5.9658 21.9803
5.9824 22.1087 5.9824 22.1193
5.9991 22.2482 5.9991 22.2588
6.0158 22.3878 6.0158 22.3985
6.0324 22.5294 6.0324 22.5401
6.0491 22.6701 6.0491 22.6807
6.0658 22.8132 6.0658 22.8239
6.0824 22.9573 6.0824 22.9680
6.0991 23.1001 6.0991 23.1107
6.1157 23.2388 6.1158 23.2494
6.1325 23.3822 6.1325 23.3929
6.1491 23.5242 6.1492 23.5348
6.1658 23.6694 6.1658 23.6800
6.1824 23.8174 6.1824 23.8280
6.1991 23.9657 6.1992 23.9764
6.2158 24.1154 6.2158 24.1260
6.2324 24.2665 6.2325 24.2772
6.2491 24.4169 6.2491 24.4276
6.2657 24.5736 6.2658 24.5842
6.2824 24.7280 6.2825 24.7386
6.2991 24.8849 6.2992 24.8955
6.3158 25.0428 6.3158 25.0535
6.3325 25.1979 6.3325 25.2086
6.3491 25.3535 6.3491 25.3642
6.3657 25.5122 6.3658 25.5228
6.3824 25.6700 6.3824 25.6807
6.3991 25.8295 6.3991 25.8402
6.4158 25.9876 6.4158 25.9982
6.4324 26.1432 6.4325 26.1538
6.4491 26.2974 6.4491 26.3081
6.4658 26.4526 6.4658 26.4632
6.4824 26.6085 6.4824 26.6191
6.4991 26.7676 6.4991 26.7783
6.5157 26.9238 6.5158 26.9344
6.5324 27.0775 6.5324 27.0881
6.5491 27.2066 6.5492 27.2173
6.5658 27.3490 6.5658 27.3596
6.5824 27.5033 6.5825 27.5139
6.5992 27.6672 6.5992 27.6779
6.6157 27.8282 6.6158 27.8389
6.6324 27.9908 6.6325 28.0015
6.6490 28.1497 6.6491 28.1603
6.6658 28.3132 6.6658 28.3238
6.6824 28.4744 6.6824 28.4850
6.6991 28.6339 6.6992 28.6445
6.7158 28.7978 6.7158 28.8085
6.7325 28.9661 6.7325 28.9767
6.7486 29.1288 6.7487 29.1395
   
"Disp (mm)" "Load (kN)" "d (raw)" "f (raw)"
0 0.0000 0.9986 0.2624
0.0164 0.0095 1.0150 0.2718
0.0333 0.0276 1.0319 0.2899
0.0500 0.0339 1.0486 0.2962
0.0667 0.0369 1.0653 0.2993
0.0833 0.0395 1.0819 0.3019
0.1000 0.0395 1.0986 0.3019
0.1167 0.0400 1.1152 0.3024
0.1334 0.0414 1.1319 0.3037
0.1500 0.0423 1.1486 0.3047
0.1667 0.0424 1.1652 0.3048
0.1834 0.0431 1.1819 0.3054
0.2001 0.0425 1.1986 0.3048
0.2167 0.0440 1.2152 0.3064
0.2333 0.0452 1.2319 0.3076
0.2500 0.0461 1.2485 0.3085
0.2667 0.0468 1.2652 0.3092
0.2834 0.0506 1.2819 0.3130
0.3000 0.0575 1.2986 0.3199
0.3167 0.0667 1.3153 0.3291
0.3334 0.0823 1.3319 0.3447
0.3500 0.1080 1.3486 0.3703
0.3666 0.1370 1.3652 0.3993
0.3834 0.1673 1.3819 0.4296
0.4000 0.1996 1.3986 0.4620
0.4167 0.2305 1.4153 0.4929
0.4334 0.2614 1.4319 0.5238
0.4500 0.2928 1.4486 0.5551
0.4667 0.3231 1.4653 0.5855
0.4834 0.3547 1.4819 0.6170
0.5000 0.3853 1.4985 0.6477
0.5167 0.4169 1.5153 0.6793
0.5333 0.4478 1.5319 0.7101
0.5501 0.4790 1.5486 0.7413
0.5667 0.5101 1.5652 0.7724
0.5834 0.5410 1.5819 0.8034
0.6000 0.5724 1.5986 0.8347
0.6167 0.6035 1.6152 0.8659
0.6333 0.6393 1.6319 0.9017
0.6500 0.6782 1.6486 0.9406
0.6666 0.7185 1.6652 0.9809
0.6834 0.7620 1.6820 1.0243
0.7000 0.8035 1.6986 1.0658
0.7167 0.8456 1.7153 1.1079
0.7334 0.8887 1.7319 1.1511
0.7500 0.9316 1.7486 1.1939
0.7667 0.9755 1.7652 1.2379
0.7834 1.0184 1.7820 1.2808
0.8000 1.0616 1.7986 1.3240
0.8167 1.1065 1.8153 1.3689
0.8334 1.1501 1.8319 1.4124
0.8501 1.1943 1.8486 1.4567
0.8667 1.2412 1.8653 1.5036
0.8834 1.2901 1.8820 1.5525
0.9000 1.3408 1.8986 1.6032
0.9167 1.3922 1.9152 1.6546
0.9333 1.4431 1.9319 1.7055
0.9501 1.4962 1.9486 1.7586
0.9667 1.5506 1.9653 1.8130
0.9834 1.6045 1.9819 1.8669
1.0000 1.6594 1.9986 1.9218
1.0167 1.7143 2.0153 1.9766
1.0333 1.7693 2.0319 2.0316
1.0500 1.8253 2.0486 2.0877
1.0666 1.8818 2.0652 2.1442
1.0834 1.9403 2.0820 2.2026
1.1000 1.9976 2.0986 2.2600
1.1167 2.0562 2.1153 2.3185
1.1334 2.1141 2.1319 2.3764
1.1501 2.1716 2.1486 2.4339
1.1667 2.2308 2.1652 2.4932
1.1834 2.2911 2.1819 2.5534
1.2000 2.3505 2.1986 2.6129
1.2168 2.4131 2.2153 2.6754
1.2334 2.4731 2.2320 2.7355
1.2500 2.5334 2.2486 2.7957
1.2666 2.5942 2.2652 2.8566
1.2834 2.6549 2.2819 2.9173
1.3000 2.7158 2.2986 2.9782
1.3167 2.7777 2.3152 3.0400
1.3334 2.8391 2.3319 3.1014
1.3500 2.9012 2.3486 3.1636
1.3667 2.9645 2.3653 3.2269
1.3834 3.0268 2.3819 3.2892
1.4000 3.0901 2.3986 3.3524
1.4167 3.1526 2.4153 3.4150
1.4334 3.2154 2.4320 3.4778
1.4500 3.2780 2.4485 3.5404
1.4667 3.3406 2.4652 3.6030
1.4834 3.4034 2.4819 3.6658
1.5001 3.4672 2.4986 3.7296
1.5167 3.5300 2.5153 3.7923
1.5334 3.5931 2.5319 3.8555
1.5500 3.6564 2.5486 3.9187
1.5667 3.7194 2.5652 3.9817
1.5833 3.7841 2.5819 4.0465
1.6000 3.8491 2.5986 4.1114
1.6167 3.9132 2.6152 4.1755
1.6334 3.9776 2.6320 4.2399
1.6501 4.0423 2.6486 4.3047
1.6667 4.1072 2.6653 4.3696
1.6834 4.1737 2.6819 4.4361
1.7000 4.2377 2.6986 4.5001
1.7166 4.3033 2.7152 4.5656
1.7334 4.3686 2.7319 4.6310
1.7500 4.4337 2.7486 4.6960
1.7667 4.4998 2.7653 4.7621
1.7834 4.5665 2.7820 4.8289
1.8000 4.6318 2.7986 4.8942
1.8167 4.6971 2.8152 4.9595
1.8334 4.7618 2.8319 5.0242
1.8500 4.8273 2.8485 5.0897
1.8667 4.8939 2.8653 5.1562
1.8834 4.9594 2.8819 5.2217
1.9001 5.0248 2.8986 5.2871
1.9167 5.0920 2.9153 5.3543
1.9334 5.1579 2.9320 5.4203
1.9500 5.2242 2.9486 5.4866
1.9667 5.2900 2.9652 5.5524
1.9833 5.3554 2.9819 5.6177
2.0000 5.4212 2.9986 5.6836
2.0167 5.4868 3.0152 5.7492
2.0334 5.5537 3.0320 5.8161
2.0500 5.6200 3.0486 5.8824
2.0668 5.6877 3.0653 5.9501
2.0833 5.7531 3.0819 6.0154
2.1000 5.8197 3.0986 6.0821
2.1166 5.8845 3.1152 6.1469
2.1334 5.9514 3.1319 6.2137
2.1500 6.0165 3.1486 6.2789
2.1667 6.0826 3.1653 6.3450
2.1834 6.1498 3.1819 6.4122
2.2001 6.2164 3.1986 6.4788
2.2167 6.2835 3.2152 6.5459
2.2334 6.3510 3.2319 6.6134
2.2500 6.4168 3.2486 6.6792
2.2667 6.4849 3.2652 6.7473
2.2833 6.5510 3.2819 6.8133
2.3000 6.6167 3.2986 6.8791
2.3167 6.6843 3.3153 6.9466
2.3334 6.7501 3.3320 7.0124
2.3500 6.8153 3.3486 7.0777
2.3667 6.8825 3.3652 7.1449
2.3833 6.9486 3.3819 7.2109
2.4000 7.0176 3.3986 7.2799
2.4167 7.0842 3.4152 7.3466
2.4334 7.1513 3.4320 7.4136
2.4500 7.2184 3.4486 7.4807
2.4667 7.2851 3.4653 7.5475
2.4833 7.3526 3.4819 7.6150
2.5000 7.4201 3.4986 7.6825
2.5167 7.4867 3.5153 7.7491
2.5334 7.5535 3.5320 7.8159
2.5500 7.6225 3.5486 7.8848
2.5666 7.6890 3.5652 7.9513
2.5833 7.7563 3.5819 8.0186
2.6000 7.8249 3.5986 8.0873
2.6167 7.8915 3.6152 8.1539
2.6334 7.9600 3.6319 8.2224
2.6500 8.0259 3.6486 8.2883
2.6667 8.0922 3.6652 8.3545
2.6833 8.1594 3.6819 8.4218
2.7001 8.2284 3.6986 8.4907
2.7167 8.2965 3.7153 8.5589
2.7334 8.3655 3.7320 8.6278
2.7500 8.4324 3.7485 8.6948
2.7667 8.5021 3.7652 8.7645
2.7834 8.5695 3.7819 8.8319
2.8000 8.6389 3.7986 8.9013
2.8166 8.7077 3.8152 8.9701
2.8334 8.7755 3.8320 9.0378
2.8500 8.8436 3.8486 9.1060
2.8667 8.9150 3.8653 9.1774
2.8834 8.9844 3.8819 9.2468
2.9000 9.0537 3.8986 9.3160
2.9167 9.1235 3.9152 9.3858
2.9333 9.1918 3.9319 9.4542
2.9500 9.2616 3.9486 9.5239
2.9668 9.3321 3.9653 9.5945
2.9834 9.4010 3.9820 9.6634
3.0001 9.4721 3.9986 9.7345
3.0167 9.5405 4.0152 9.8028
3.0333 9.6110 4.0319 9.8734
3.0500 9.6824 4.0486 9.9448
3.0667 9.7530 4.0652 10.0154
3.0833 9.8244 4.0819 10.0867
3.1000 9.8937 4.0986 10.1560
3.1167 9.9644 4.1153 10.2267
3.1334 10.0345 4.1320 10.2968
3.1500 10.1032 4.1486 10.3656
3.1667 10.1717 4.1652 10.4340
3.1833 10.2406 4.1819 10.5030
3.2000 10.3107 4.1986 10.5731
3.2167 10.3824 4.2152 10.6447
3.2334 10.4535 4.2319 10.7159
3.2500 10.5241 4.2486 10.7864
3.2667 10.5946 4.2652 10.8570
3.2834 10.6644 4.2820 10.9267
3.3000 10.7338 4.2986 10.9961
3.3167 10.8052 4.3152 11.0676
3.3333 10.8744 4.3319 11.1368
3.3500 10.9444 4.3486 11.2068
3.3667 11.0158 4.3652 11.2782
3.3834 11.0866 4.3820 11.3490
3.4000 11.1587 4.3986 11.4210
3.4168 11.2302 4.4153 11.4926
3.4334 11.3013 4.4319 11.5636
3.4500 11.3729 4.4486 11.6353
3.4667 11.4433 4.4652 11.7057
3.4833 11.5129 4.4819 11.7753
3.5000 11.5837 4.4986 11.8460
3.5167 11.6544 4.5153 11.9168
3.5334 11.7274 4.5319 11.9897
3.5501 11.8019 4.5486 12.0643
3.5667 11.8740 4.5652 12.1364
3.5833 11.9482 4.5819 12.2106
3.6000 12.0210 4.5986 12.2833
3.6166 12.0932 4.6152 12.3556
3.6334 12.1657 4.6319 12.4281
3.6501 12.2365 4.6486 12.4989
3.6667 12.3087 4.6652 12.5710
3.6834 12.3813 4.6819 12.6437
3.7000 12.4535 4.6986 12.7159
3.7166 12.5272 4.7152 12.7895
3.7333 12.6002 4.7319 12.8626
3.7500 12.6737 4.7486 12.9361
3.7667 12.7470 4.7652 13.0094
3.7834 12.8212 4.7820 13.0835
3.8000 12.8931 4.7986 13.1555
3.8168 12.9683 4.8153 13.2307
3.8334 13.0425 4.8320 13.3049
3.8500 13.1189 4.8486 13.3813
3.8666 13.1954 4.8652 13.4577
3.8834 13.2751 4.8819 13.5375
3.9000 13.3554 4.8986 13.6178
3.9168 13.4398 4.9153 13.7021
3.9333 13.5243 4.9319 13.7866
3.9501 13.6118 4.9486 13.8741
3.9667 13.6949 4.9653 13.9573
3.9834 13.7800 4.9819 14.0423
4.0000 13.8667 4.9986 14.1290
4.0167 13.9545 5.0153 14.2169
4.0333 14.0413 5.0319 14.3037
4.0500 14.1290 5.0486 14.3914
4.0666 14.2149 5.0652 14.4773
4.0834 14.3039 5.0819 14.5663
4.1000 14.3917 5.0986 14.6540
4.1167 14.4800 5.1153 14.7424
4.1334 14.5688 5.1319 14.8312
4.1500 14.6585 5.1486 14.9209
4.1666 14.7480 5.1652 15.0104
4.1834 14.8406 5.1820 15.1029
4.2000 14.9313 5.1986 15.1937
4.2167 15.0260 5.2153 15.2883
4.2334 15.1205 5.2319 15.3828
4.2500 15.2145 5.2486 15.4769
4.2666 15.3121 5.2652 15.5744
4.2834 15.4096 5.2819 15.6720
4.3000 15.5057 5.2985 15.7680
4.3167 15.6059 5.3153 15.8683
4.3334 15.7043 5.3319 15.9667
4.3500 15.8063 5.3486 16.0687
4.3667 15.9093 5.3652 16.1716
4.3834 16.0128 5.3819 16.2751
4.4000 16.1186 5.3986 16.3810
4.4167 16.2241 5.4153 16.4865
4.4333 16.3302 5.4319 16.5926
4.4500 16.4388 5.4486 16.7012
4.4667 16.5435 5.4653 16.8059
4.4834 16.6515 5.4820 16.9139
4.5000 16.7594 5.4986 17.0218
4.5167 16.8659 5.5153 17.1283
4.5334 16.9755 5.5319 17.2379
4.5500 17.0843 5.5486 17.3467
4.5666 17.1938 5.5652 17.4562
4.5834 17.3072 5.5819 17.5695
4.6001 17.4176 5.5986 17.6800
4.6167 17.5286 5.6153 17.7910
4.6334 17.6402 5.6319 17.9025
4.6501 17.7503 5.6486 18.0127
4.6667 17.8619 5.6652 18.1242
4.6834 17.9777 5.6819 18.2401
4.7000 18.0925 5.6986 18.3549
4.7167 18.2114 5.7153 18.4737
4.7334 18.3284 5.7320 18.5907
4.7500 18.4445 5.7486 18.7068
4.7667 18.5618 5.7652 18.8242
4.7834 18.6794 5.7820 18.9417
4.8000 18.8015 5.7986 19.0639
4.8167 18.9275 5.8152 19.1899
4.8334 19.0521 5.8319 19.3145
4.8500 19.1794 5.8486 19.4418
4.8667 19.3101 5.8653 19.5725
4.8834 19.4423 5.8819 19.7047
4.9000 19.5771 5.8986 19.8395
4.9167 19.7139 5.9153 19.9762
4.9334 19.8569 5.9319 20.1193
4.9500 20.0017 5.9486 20.2641
4.9667 20.1461 5.9652 20.4085
4.9834 20.2944 5.9819 20.5568
5.0000 20.4415 5.9986 20.7039
5.0167 20.5869 6.0152 20.8492
5.0333 20.7352 6.0319 20.9976
5.0500 20.8847 6.0486 21.1471
5.0667 21.0358 6.0652 21.2982
5.0833 21.1877 6.0819 21.4501
5.1000 21.3400 6.0986 21.6024
5.1167 21.4958 6.1152 21.7581
5.1334 21.6520 6.1320 21.9144
5.1500 21.8055 6.1486 22.0678
5.1667 21.9604 6.1652 22.2228
5.1833 22.1170 6.1819 22.3794
5.2000 22.2736 6.1986 22.5360
5.2166 22.4333 6.2152 22.6957
5.2334 22.5933 6.2319 22.8557
5.2500 22.7537 6.2486 23.0161
5.2667 22.9199 6.2653 23.1823
5.2834 23.0838 6.2819 23.3462
5.3001 23.2473 6.2986 23.5096
5.3167 23.4127 6.3153 23.6751
5.3334 23.5779 6.3320 23.8403
5.3500 23.7429 6.3486 24.0053
5.3666 23.9106 6.3652 24.1730
5.3833 24.0767 6.3819 24.3391
5.4001 24.2466 6.3986 24.5089
5.4167 24.4136 6.4153 24.6760
5.4334 24.5809 6.4320 24.8433
5.4488 24.7380 6.4474 25.0003
5.4489 24.7383 6.4474 25.0007
5.4330 24.5932 6.4316 24.8555
5.4191 24.3428 6.4176 24.6052
5.4069 24.0928 6.4055 24.3552
5.3944 23.8427 6.3929 24.1051
5.3814 23.5924 6.3799 23.8547
5.3679 23.3418 6.3664 23.6042
5.3541 23.0913 6.3527 23.3537
5.3400 22.8412 6.3386 23.1036
5.3256 22.5910 6.3242 22.8534
5.3109 22.3405 6.3094 22.6029
5.2961 22.0901 6.2947 22.3525
5.2809 21.8397 6.2795 22.1020
5.2656 21.5894 6.2642 21.8518
5.2502 21.3393 6.2488 21.6017
5.2344 21.0890 6.2329 21.3514
5.2182 20.8388 6.2168 21.1012
5.2017 20.5888 6.2003 20.8512
5.1851 20.3450 6.1836 20.6073
5.1684 20.1031 6.1670 20.3654
5.1518 19.8671 6.1503 20.1294
5.1351 19.6320 6.1336 19.8943
5.1184 19.3965 6.1170 19.6589
5.1017 19.1635 6.1002 19.4259
5.0850 18.9318 6.0836 19.1942
5.0684 18.7052 6.0670 18.9676
5.0518 18.4879 6.0503 18.7503
5.0351 18.2723 6.0336 18.5347
5.0184 18.0611 6.0170 18.3235
5.0017 17.8530 6.0003 18.1154
4.9850 17.6483 5.9836 17.9107
4.9684 17.4477 5.9670 17.7100
4.9518 17.2537 5.9503 17.5161
4.9351 17.0638 5.9336 17.3261
4.9184 16.8763 5.9170 17.1386
4.9017 16.6914 5.9003 16.9537
4.8851 16.5111 5.8836 16.7735
4.8684 16.3363 5.8670 16.5987
4.8518 16.1634 5.8503 16.4258
4.8350 15.9948 5.8336 16.2572
4.8184 15.8344 5.8170 16.0968
4.8017 15.6741 5.8003 15.9365
4.7851 15.5181 5.7836 15.7805
4.7684 15.3657 5.7670 15.6281
4.7518 15.2151 5.7504 15.4775
4.7351 15.0684 5.7336 15.3308
4.7184 14.9216 5.7170 15.1840
4.7017 14.7782 5.7003 15.0406
4.6851 14.6379 5.6836 14.9003
4.6684 14.4976 5.6670 14.7600
4.6518 14.3614 5.6503 14.6237
4.6351 14.2274 5.6336 14.4898
4.6184 14.0918 5.6170 14.3542
4.6017 13.9595 5.6003 14.2219
4.5851 13.8254 5.5836 14.0878
4.5684 13.6927 5.5670 13.9550
4.5518 13.5656 5.5503 13.8280
4.5351 13.4391 5.5336 13.7015
4.5184 13.3159 5.5170 13.5783
4.5017 13.1934 5.5003 13.4558
4.4851 13.0707 5.4836 13.3331
4.4684 12.9509 5.4670 13.2132
4.4517 12.8314 5.4503 13.0938
4.4351 12.7112 5.4336 12.9736
4.4184 12.5973 5.4170 12.8597
4.4017 12.4803 5.4003 12.7427
4.3851 12.3679 5.3836 12.6303
4.3684 12.2603 5.3670 12.5227
4.3518 12.1546 5.3503 12.4170
4.3350 12.0514 5.3336 12.3138
4.3184 11.9487 5.3170 12.2110
4.3017 11.8466 5.3003 12.1089
4.2851 11.7473 5.2836 12.0097
4.2684 11.6478 5.2670 11.9102
4.2518 11.5491 5.2503 11.8114
4.2351 11.4517 5.2336 11.7141
4.2184 11.3552 5.2170 11.6176
4.2017 11.2596 5.2002 11.5219
4.1850 11.1663 5.1836 11.4287
4.1684 11.0731 5.1669 11.3354
4.1517 10.9825 5.1503 11.2449
4.1351 10.8919 5.1336 11.1543
4.1184 10.8001 5.1170 11.0625
4.1017 10.7106 5.1003 10.9730
4.0850 10.6191 5.0836 10.8815
4.0684 10.5291 5.0669 10.7915
4.0518 10.4430 5.0503 10.7054
4.0351 10.3588 5.0336 10.6212
4.0184 10.2768 5.0170 10.5391
4.0017 10.1965 5.0003 10.4589
3.9850 10.1140 4.9836 10.3764
3.9684 10.0353 4.9670 10.2977
3.9517 9.9577 4.9503 10.2201
3.9350 9.8788 4.9336 10.1412
3.9184 9.8021 4.9169 10.0645
3.9018 9.7242 4.9003 9.9865
3.8850 9.6452 4.8836 9.9076
3.8684 9.5700 4.8670 9.8324
3.8518 9.4942 4.8504 9.7566
3.8351 9.4192 4.8337 9.6816
3.8184 9.3435 4.8169 9.6059
3.8017 9.2663 4.8002 9.5286
3.7850 9.1911 4.7836 9.4535
3.7684 9.1170 4.7670 9.3793
3.7517 9.0427 4.7503 9.3051
3.7351 8.9698 4.7336 9.2322
3.7184 8.8958 4.7170 9.1581
3.7018 8.8242 4.7003 9.0866
3.6850 8.7532 4.6836 9.0156
3.6684 8.6819 4.6670 8.9442
3.6518 8.6118 4.6503 8.8741
3.6351 8.5412 4.6336 8.8035
3.6184 8.4700 4.6170 8.7324
3.6018 8.4012 4.6003 8.6635
3.5851 8.3298 4.5836 8.5922
3.5684 8.2608 4.5670 8.5232
3.5517 8.1930 4.5503 8.4554
3.5351 8.1241 4.5336 8.3864
3.5184 8.0558 4.5170 8.3181
3.5017 7.9895 4.5003 8.2519
3.4850 7.9227 4.4836 8.1850
3.4684 7.8583 4.4670 8.1207
3.4518 7.7925 4.4503 8.0549
3.4351 7.7274 4.4337 7.9898
3.4184 7.6626 4.4170 7.9250
3.4018 7.5961 4.4003 7.8584
3.3850 7.5297 4.3836 7.7920
3.3684 7.4665 4.3670 7.7289
3.3517 7.4013 4.3502 7.6637
3.3351 7.3393 4.3337 7.6017
3.3184 7.2754 4.3170 7.5378
3.3018 7.2111 4.3003 7.4735
3.2850 7.1474 4.2836 7.4097
3.2684 7.0831 4.2670 7.3455
3.2517 7.0203 4.2503 7.2826
3.2351 6.9585 4.2336 7.2208
3.2184 6.8954 4.2170 7.1577
3.2018 6.8331 4.2003 7.0955
3.1850 6.7714 4.1836 7.0338
3.1684 6.7101 4.1670 6.9724
3.1517 6.6512 4.1503 6.9136
3.1351 6.5906 4.1337 6.8530
3.1184 6.5295 4.1169 6.7919
3.1017 6.4684 4.1003 6.7307
3.0850 6.4067 4.0836 6.6690
3.0684 6.3461 4.0670 6.6085
3.0517 6.2879 4.0503 6.5502
3.0351 6.2278 4.0336 6.4902
3.0184 6.1683 4.0170 6.4307
3.0018 6.1092 4.0003 6.3716
2.9850 6.0491 3.9836 6.3115
2.9684 5.9909 3.9670 6.2532
2.9518 5.9320 3.9503 6.1944
2.9351 5.8730 3.9336 6.1353
2.9184 5.8166 3.9170 6.0790
2.9018 5.7581 3.9003 6.0205
2.8850 5.7004 3.8836 5.9628
2.8684 5.6434 3.8670 5.9057
2.8517 5.5848 3.8503 5.8472
2.8351 5.5287 3.8336 5.7911
2.8184 5.4711 3.8170 5.7335
2.8017 5.4146 3.8003 5.6770
2.7850 5.3577 3.7836 5.6200
2.7684 5.3006 3.7670 5.5630
2.7518 5.2437 3.7503 5.5061
2.7351 5.1886 3.7337 5.4510
2.7184 5.1310 3.7170 5.3934
2.7017 5.0753 3.7003 5.3376
2.6850 5.0191 3.6836 5.2815
2.6684 4.9627 3.6669 5.2251
2.6517 4.9080 3.6502 5.1704
2.6351 4.8533 3.6336 5.1157
2.6184 4.7977 3.6170 5.0601
2.6017 4.7428 3.6002 5.0051
2.5850 4.6863 3.5836 4.9486
2.5684 4.6328 3.5670 4.8952
2.5518 4.5799 3.5503 4.8423
2.5351 4.5248 3.5336 4.7871
2.5184 4.4710 3.5169 4.7334
2.5017 4.4166 3.5003 4.6789
2.4850 4.3619 3.4836 4.6243
2.4684 4.3078 3.4669 4.5702
2.4518 4.2537 3.4503 4.5161
2.4350 4.1995 3.4336 4.4619
2.4184 4.1471 3.4170 4.4094
2.4017 4.0934 3.4002 4.3557
2.3851 4.0413 3.3836 4.3037
2.3684 3.9897 3.3670 4.2521
2.3518 3.9368 3.3503 4.1992
2.3350 3.8861 3.3336 4.1485
2.3184 3.8341 3.3170 4.0965
2.3017 3.7818 3.3002 4.0441
2.2851 3.7305 3.2836 3.9929
2.2684 3.6782 3.2670 3.9405
2.2517 3.6269 3.2503 3.8892
2.2350 3.5765 3.2336 3.8388
2.2184 3.5255 3.2170 3.7879
2.2017 3.4741 3.2003 3.7365
2.1851 3.4234 3.1836 3.6858
2.1684 3.3717 3.1669 3.6341
2.1517 3.3222 3.1503 3.5845
2.1350 3.2716 3.1336 3.5340
2.1184 3.2223 3.1170 3.4847
2.1018 3.1731 3.1003 3.4354
2.0851 3.1232 3.0836 3.3856
2.0684 3.0735 3.0670 3.3358
2.0518 3.0264 3.0503 3.2888
2.0350 2.9775 3.0336 3.2398
2.0184 2.9302 3.0170 3.1926
2.0017 2.8811 3.0002 3.1434
1.9851 2.8324 2.9836 3.0948
1.9684 2.7832 2.9669 3.0456
1.9518 2.7357 2.9503 2.9980
1.9351 2.6878 2.9336 2.9501
1.9184 2.6409 2.9170 2.9033
1.9017 2.5927 2.9002 2.8551
1.8850 2.5455 2.8836 2.8079
1.8684 2.4985 2.8669 2.7608
1.8518 2.4519 2.8503 2.7143
1.8351 2.4055 2.8336 2.6678
1.8184 2.3589 2.8170 2.6212
1.8017 2.3113 2.8003 2.5736
1.7851 2.2646 2.7836 2.5270
1.7684 2.2180 2.7669 2.4804
1.7517 2.1722 2.7503 2.4345
1.7350 2.1266 2.7336 2.3889
1.7184 2.0809 2.7170 2.3433
1.7017 2.0352 2.7003 2.2976
1.6851 1.9900 2.6836 2.2524
1.6684 1.9453 2.6670 2.2077
1.6518 1.9009 2.6503 2.1632
1.6350 1.8563 2.6336 2.1186
1.6184 1.8114 2.6170 2.0737
1.6017 1.7671 2.6002 2.0294
1.5851 1.7241 2.5836 1.9865
1.5684 1.6810 2.5670 1.9433
1.5518 1.6381 2.5503 1.9005
1.5351 1.5952 2.5336 1.8576
1.5184 1.5531 2.5170 1.8155
1.5017 1.5111 2.5003 1.7735
1.4850 1.4694 2.4836 1.7317
1.4684 1.4278 2.4670 1.6901
1.4518 1.3857 2.4503 1.6480
1.4351 1.3443 2.4336 1.6066
1.4184 1.3052 2.4170 1.5675
1.4017 1.2654 2.4003 1.5278
1.3851 1.2261 2.3836 1.4885
1.3684 1.1870 2.3669 1.4494
1.3517 1.1490 2.3503 1.4113
1.3350 1.1114 2.3336 1.3738
1.3184 1.0752 2.3170 1.3376
1.3017 1.0381 2.3002 1.3005
1.2851 1.0039 2.2836 1.2663
1.2684 0.9713 2.2670 1.2336
1.2518 0.9394 2.2504 1.2018
1.2351 0.9083 2.2336 1.1707
1.2184 0.8757 2.2170 1.1380
1.2017 0.8450 2.2002 1.1074
1.1850 0.8139 2.1836 1.0762
1.1684 0.7835 2.1670 1.0458
1.1518 0.7538 2.1503 1.0162
1.1351 0.7233 2.1336 0.9857
1.1184 0.6931 2.1170 0.9554
1.1017 0.6635 2.1003 0.9259
1.0850 0.6334 2.0836 0.8958
1.0684 0.6045 2.0670 0.8668
1.0517 0.5758 2.0503 0.8382
1.0351 0.5469 2.0336 0.8093
1.0184 0.5190 2.0170 0.7814
1.0018 0.4920 2.0003 0.7544
0.9850 0.4652 1.9836 0.7276
0.9684 0.4398 1.9670 0.7022
0.9517 0.4157 1.9503 0.6781
0.9351 0.3904 1.9336 0.6527
0.9184 0.3649 1.9170 0.6273
0.9017 0.3406 1.9003 0.6030
0.8851 0.3167 1.8836 0.5790
0.8684 0.2932 1.8670 0.5556
0.8517 0.2696 1.8503 0.5320
0.8351 0.2460 1.8336 0.5083
0.8184 0.2238 1.8169 0.4862
0.8017 0.2016 1.8003 0.4639
0.7850 0.1812 1.7836 0.4435
0.7684 0.1625 1.7670 0.4249
0.7517 0.1452 1.7503 0.4076
0.7448 0.1376 1.7433 0.3999
0.7448 0.1375 1.7433 0.3999
0.7606 0.1502 1.7592 0.4126
0.7779 0.1795 1.7765 0.4419
0.7947 0.2177 1.7933 0.4801
0.8114 0.2598 1.8100 0.5221
0.8281 0.3025 1.8267 0.5649
0.8448 0.3448 1.8433 0.6072
0.8614 0.3878 1.8600 0.6502
0.8781 0.4310 1.8767 0.6934
0.8947 0.4751 1.8933 0.7375
0.9114 0.5221 1.9100 0.7845
0.9281 0.5704 1.9266 0.8327
0.9448 0.6186 1.9433 0.8810
0.9614 0.6650 1.9600 0.9274
0.9781 0.7132 1.9767 0.9756
0.9948 0.7613 1.9933 1.0236
1.0114 0.8075 2.0100 1.0699
1.0280 0.8549 2.0266 1.1172
1.0447 0.9031 2.0433 1.1655
1.0614 0.9517 2.0600 1.2141
1.0781 1.0013 2.0767 1.2637
1.0948 1.0532 2.0933 1.3156
1.1114 1.1062 2.1100 1.3686
1.1281 1.1625 2.1266 1.4249
1.1448 1.2193 2.1433 1.4817
1.1614 1.2771 2.1600 1.5394
1.1781 1.3373 2.1766 1.5997
1.1948 1.3962 2.1933 1.6585
1.2115 1.4579 2.2100 1.7203
1.2282 1.5211 2.2267 1.7834
1.2448 1.5833 2.2434 1.8457
1.2614 1.6464 2.2599 1.9088
1.2780 1.7092 2.2766 1.9715
1.2947 1.7724 2.2933 2.0347
1.3114 1.8364 2.3100 2.0987
1.3281 1.9006 2.3266 2.1630
1.3448 1.9651 2.3434 2.2275
1.3614 2.0306 2.3600 2.2930
1.3782 2.0953 2.3767 2.3577
1.3947 2.1606 2.3933 2.4229
1.4114 2.2263 2.4100 2.4887
1.4281 2.2927 2.4266 2.5550
1.4447 2.3569 2.4433 2.6193
1.4614 2.4230 2.4600 2.6854
1.4781 2.4882 2.4767 2.7506
1.4948 2.5543 2.4933 2.8166
1.5115 2.6196 2.5100 2.8820
1.5281 2.6828 2.5266 2.9451
1.5447 2.7497 2.5433 3.0120
1.5614 2.8155 2.5599 3.0779
1.5781 2.8820 2.5766 3.1443
1.5947 2.9490 2.5933 3.2113
1.6114 3.0141 2.6100 3.2765
1.6281 3.0808 2.6267 3.3431
1.6448 3.1467 2.6434 3.4090
1.6614 3.2128 2.6600 3.4752
1.6781 3.2812 2.6767 3.5436
1.6947 3.3469 2.6933 3.6093
1.7114 3.4130 2.7100 3.6754
1.7281 3.4804 2.7266 3.7427
1.7448 3.5483 2.7434 3.8107
1.7614 3.6146 2.7600 3.8770
1.7781 3.6824 2.7767 3.9448
1.7947 3.7493 2.7933 4.0117
1.8114 3.8162 2.8100 4.0785
1.8281 3.8828 2.8266 4.1451
1.8447 3.9502 2.8433 4.2125
1.8614 4.0184 2.8599 4.2808
1.8781 4.0863 2.8767 4.3487
1.8948 4.1536 2.8933 4.4160
1.9115 4.2229 2.9100 4.4852
1.9281 4.2896 2.9266 4.5520
1.9448 4.3582 2.9433 4.6205
1.9614 4.4270 2.9600 4.6894
1.9781 4.4934 2.9766 4.7558
1.9947 4.5621 2.9933 4.8244
2.0115 4.6312 3.0100 4.8935
2.0281 4.6989 3.0267 4.9612
2.0448 4.7679 3.0434 5.0303
2.0614 4.8357 3.0600 5.0980
2.0781 4.9042 3.0767 5.1665
2.0947 4.9724 3.0933 5.2347
2.1114 5.0408 3.1100 5.3031
2.1280 5.1088 3.1266 5.3712
2.1448 5.1771 3.1434 5.4395
2.1614 5.2459 3.1600 5.5083
2.1781 5.3150 3.1767 5.5773
2.1948 5.3838 3.1933 5.6461
2.2114 5.4528 3.2100 5.7151
2.2281 5.5231 3.2267 5.7854
2.2447 5.5921 3.2433 5.8544
2.2614 5.6618 3.2600 5.9241
2.2781 5.7323 3.2766 5.9947
2.2948 5.7996 3.2933 6.0620
2.3114 5.8697 3.3100 6.1320
2.3281 5.9383 3.3267 6.2007
2.3448 6.0061 3.3433 6.2685
2.3614 6.0750 3.3600 6.3374
2.3781 6.1433 3.3766 6.4057
2.3947 6.2146 3.3933 6.4769
2.4114 6.2846 3.4100 6.5470
2.4281 6.3537 3.4267 6.6160
2.4448 6.4235 3.4433 6.6859
2.4615 6.4927 3.4600 6.7551
2.4781 6.5614 3.4766 6.8238
2.4947 6.6313 3.4933 6.8937
2.5114 6.7006 3.5100 6.9629
2.5281 6.7700 3.5267 7.0323
2.5448 6.8415 3.5433 7.1038
2.5614 6.9097 3.5600 7.1720
2.5780 6.9794 3.5766 7.2417
2.5948 7.0510 3.5934 7.3133
2.6114 7.1190 3.6100 7.3813
2.6281 7.1882 3.6267 7.4506
2.6448 7.2590 3.6433 7.5214
2.6614 7.3263 3.6600 7.5887
2.6781 7.3959 3.6767 7.6582
2.6948 7.4651 3.6934 7.7274
2.7114 7.5340 3.7100 7.7964
2.7282 7.6043 3.7267 7.8667
2.7448 7.6739 3.7433 7.9362
2.7614 7.7439 3.7600 8.0062
2.7781 7.8146 3.7766 8.0770
2.7948 7.8851 3.7933 8.1475
2.8114 7.9547 3.8100 8.2171
2.8282 8.0255 3.8267 8.2879
2.8448 8.0958 3.8433 8.3581
2.8615 8.1677 3.8600 8.4300
2.8781 8.2381 3.8766 8.5004
2.8948 8.3092 3.8933 8.5715
2.9114 8.3814 3.9100 8.6437
2.9281 8.4521 3.9266 8.7145
2.9447 8.5232 3.9433 8.7856
2.9615 8.5951 3.9600 8.8575
2.9781 8.6660 3.9766 8.9284
2.9948 8.7377 3.9934 9.0001
3.0114 8.8075 4.0100 9.0698
3.0280 8.8792 4.0266 9.1415
3.0447 8.9528 4.0433 9.2151
3.0615 9.0262 4.0600 9.2886
3.0780 9.0978 4.0766 9.3602
3.0948 9.1718 4.0934 9.4341
3.1114 9.2426 4.1100 9.5050
3.1282 9.3150 4.1267 9.5774
3.1448 9.3856 4.1433 9.6480
3.1614 9.4570 4.1600 9.7193
3.1780 9.5279 4.1766 9.7903
3.1948 9.6002 4.1934 9.8626
3.2114 9.6736 4.2100 9.9360
3.2281 9.7477 4.2267 10.0100
3.2448 9.8187 4.2433 10.0811
3.2614 9.8917 4.2600 10.1541
3.2781 9.9631 4.2766 10.2255
3.2948 10.0356 4.2933 10.2980
3.3114 10.1081 4.3100 10.3705
3.3281 10.1803 4.3267 10.4427
3.3447 10.2519 4.3433 10.5143
3.3614 10.3261 4.3600 10.5885
3.3781 10.3981 4.3767 10.6605
3.3948 10.4719 4.3934 10.7343
3.4114 10.5462 4.4100 10.8086
3.4281 10.6204 4.4267 10.8828
3.4447 10.6942 4.4433 10.9565
3.4614 10.7657 4.4600 11.0280
3.4780 10.8373 4.4766 11.0997
3.4948 10.9111 4.4934 11.1735
3.5114 10.9836 4.5100 11.2460
3.5281 11.0579 4.5267 11.3203
3.5448 11.1339 4.5433 11.3963
3.5614 11.2085 4.5600 11.4708
3.5780 11.2838 4.5766 11.5462
3.5948 11.3599 4.5933 11.6222
3.6114 11.4331 4.6099 11.6955
3.6281 11.5077 4.6267 11.7701
3.6448 11.5815 4.6434 11.8438
3.6614 11.6548 4.6600 11.9172
3.6781 11.7279 4.6766 11.9903
3.6948 11.8027 4.6933 12.0650
3.7114 11.8774 4.7100 12.1397
3.7281 11.9537 4.7267 12.2160
3.7447 12.0278 4.7433 12.2901
3.7614 12.1037 4.7600 12.3661
3.7781 12.1788 4.7767 12.4412
3.7948 12.2529 4.7933 12.5153
3.8114 12.3303 4.8100 12.5927
3.8282 12.4059 4.8267 12.6683
3.8448 12.4820 4.8433 12.7444
3.8614 12.5602 4.8600 12.8225
3.8780 12.6399 4.8766 12.9023
3.8948 12.7217 4.8933 12.9840
3.9115 12.8063 4.9100 13.0687
3.9281 12.8921 4.9267 13.1545
3.9448 12.9792 4.9433 13.2416
3.9615 13.0655 4.9600 13.3279
3.9781 13.1511 4.9767 13.4135
3.9947 13.2397 4.9933 13.5021
4.0114 13.3281 5.0100 13.5905
4.0281 13.4167 5.0266 13.6791
4.0448 13.5063 5.0433 13.7687
4.0614 13.5937 5.0600 13.8560
4.0781 13.6829 5.0766 13.9452
4.0948 13.7728 5.0933 14.0351
4.1114 13.8634 5.1100 14.1257
4.1281 13.9542 5.1266 14.2166
4.1448 14.0454 5.1433 14.3078
4.1614 14.1366 5.1600 14.3989
4.1781 14.2302 5.1767 14.4926
4.1948 14.3238 5.1934 14.5862
4.2115 14.4203 5.2100 14.6826
4.2281 14.5176 5.2267 14.7800
4.2448 14.6124 5.2433 14.8748
4.2614 14.7116 5.2600 14.9740
4.2781 14.8109 5.2766 15.0733
4.2948 14.9095 5.2933 15.1719
4.3114 15.0118 5.3100 15.2742
4.3281 15.1130 5.3267 15.3754
4.3448 15.2168 5.3434 15.4791
4.3614 15.3223 5.3600 15.5846
4.3781 15.4280 5.3767 15.6904
4.3947 15.5350 5.3933 15.7974
4.4114 15.6447 5.4100 15.9071
4.4281 15.7529 5.4266 16.0153
4.4448 15.8641 5.4434 16.1265
4.4615 15.9723 5.4600 16.2347
4.4781 16.0833 5.4767 16.3457
4.4948 16.1944 5.4933 16.4567
4.5114 16.3044 5.5100 16.5667
4.5281 16.4156 5.5266 16.6780
4.5448 16.5281 5.5433 16.7905
4.5614 16.6417 5.5600 16.9040
4.5781 16.7545 5.5766 17.0168
4.5948 16.8678 5.5934 17.1302
4.6114 16.9806 5.6100 17.2429
4.6281 17.0940 5.6266 17.3564
4.6448 17.2079 5.6433 17.4703
4.6614 17.3214 5.6600 17.5837
4.6781 17.4395 5.6767 17.7018
4.6948 17.5565 5.6933 17.8189
4.7114 17.6787 5.7100 17.9411
4.7281 17.7993 5.7267 18.0616
4.7448 17.9179 5.7434 18.1803
4.7614 18.0386 5.7600 18.3009
4.7781 18.1601 5.7766 18.4225
4.7947 18.2830 5.7933 18.5454
4.8114 18.4126 5.8100 18.6750
4.8281 18.5393 5.8266 18.8017
4.8448 18.6684 5.8434 18.9308
4.8614 18.8003 5.8600 19.0627
4.8781 18.9360 5.8767 19.1984
4.8947 19.0730 5.8933 19.3354
4.9114 19.2138 5.9100 19.4761
4.9280 19.3588 5.9266 19.6212
4.9448 19.5083 5.9433 19.7707
4.9614 19.6574 5.9600 19.9198
4.9781 19.8078 5.9767 20.0701
4.9948 19.9593 5.9933 20.2217
5.0115 20.1090 6.0100 20.3714
5.0280 20.2603 6.0266 20.5226
5.0448 20.4149 6.0433 20.6772
5.0614 20.5694 6.0600 20.8318
5.0780 20.7252 6.0766 20.9875
5.0947 20.8835 6.0933 21.1459
5.1115 21.0443 6.1100 21.3067
5.1281 21.2045 6.1267 21.4669
5.1448 21.3627 6.1434 21.6250
5.1614 21.5204 6.1600 21.7828
5.1780 21.6830 6.1766 21.9453
5.1947 21.8433 6.1933 22.1057
5.2114 22.0057 6.2100 22.2681
5.2281 22.1712 6.2266 22.4335
5.2448 22.3349 6.2434 22.5973
5.2614 22.5019 6.2600 22.7643
5.2781 22.6708 6.2767 22.9331
5.2947 22.8364 6.2933 23.0988
5.3114 23.0062 6.3100 23.2685
5.3281 23.1749 6.3267 23.4373
5.3448 23.3446 6.3433 23.6070
5.3613 23.5165 6.3599 23.7789
5.3781 23.6880 6.3767 23.9504
5.3948 23.8602 6.3933 24.1226
5.4115 24.0338 6.4100 24.2962
5.4280 24.2009 6.4266 24.4632
5.4448 24.3736 6.4433 24.6359
5.4614 24.5454 6.4600 24.8077
5.4780 24.7184 6.4766 24.9808
5.4798 24.7377 6.4784 25.0001
5.4799 24.7381 6.4784 25.0004
5.4640 24.5897 6.4626 24.8520
5.4506 24.3391 6.4492 24.6015
5.4388 24.0888 6.4373 24.3512
5.4263 23.8386 6.4248 24.1010
5.4132 23.5880 6.4117 23.8504
5.4000 23.3377 6.3986 23.6000
5.3864 23.0874 6.3850 23.3498
5.3725 22.8372 6.3711 23.0996
5.3584 22.5872 6.3570 22.8496
5.3440 22.3369 6.3426 22.5993
5.3292 22.0867 6.3278 22.3490
5.3142 21.8363 6.3127 22.0987
5.2990 21.5862 6.2976 21.8485
5.2835 21.3358 6.2821 21.5982
5.2678 21.0856 6.2664 21.3480
5.2521 20.8356 6.2506 21.0980
5.2358 20.5853 6.2344 20.8477
5.2194 20.3349 6.2179 20.5973
5.2027 20.0868 6.2012 20.3491
5.1860 19.8473 6.1846 20.1097
5.1694 19.6095 6.1680 19.8719
5.1528 19.3773 6.1513 19.6397
5.1360 19.1457 6.1346 19.4080
5.1193 18.9155 6.1179 19.1779
5.1027 18.6858 6.1012 18.9482
5.0860 18.4575 6.0846 18.7199
5.0694 18.2337 6.0679 18.4961
5.0527 18.0195 6.0513 18.2819
5.0361 17.8075 6.0346 18.0699
5.0194 17.5991 6.0179 17.8615
5.0027 17.3958 6.0013 17.6582
4.9860 17.1948 5.9846 17.4571
4.9694 16.9995 5.9680 17.2619
4.9527 16.8093 5.9513 17.0716
4.9360 16.6227 5.9346 16.8851
4.9194 16.4396 5.9179 16.7019
4.9027 16.2581 5.9012 16.5204
4.8860 16.0815 5.8846 16.3438
4.8694 15.9117 5.8680 16.1741
4.8527 15.7449 5.8512 16.0073
4.8360 15.5838 5.8346 15.8462
4.8194 15.4284 5.8179 15.6908
4.8027 15.2744 5.8013 15.5367
4.7861 15.1225 5.7846 15.3849
4.7694 14.9747 5.7680 15.2371
4.7527 14.8283 5.7513 15.0906
4.7361 14.6875 5.7346 14.9499
4.7194 14.5438 5.7179 14.8061
4.7027 14.4030 5.7013 14.6654
4.6860 14.2643 5.6846 14.5266
4.6694 14.1264 5.6680 14.3887
4.6527 13.9907 5.6512 14.2531
4.6361 13.8584 5.6346 14.1208
4.6194 13.7246 5.6180 13.9870
4.6028 13.5945 5.6013 13.8569
4.5860 13.4627 5.5846 13.7251
4.5694 13.3324 5.5679 13.5948
4.5527 13.2066 5.5512 13.4690
4.5361 13.0839 5.5346 13.3462
4.5194 12.9621 5.5179 13.2245
4.5027 12.8434 5.5013 13.1058
4.4860 12.7226 5.4846 12.9849
4.4694 12.6053 5.4680 12.8677
4.4527 12.4878 5.4512 12.7501
4.4360 12.3708 5.4346 12.6331
4.4194 12.2574 5.4179 12.5198
4.4027 12.1449 5.4013 12.4073
4.3860 12.0343 5.3846 12.2967
4.3694 11.9301 5.3679 12.1925
4.3527 11.8265 5.3512 12.0889
4.3361 11.7245 5.3346 11.9868
4.3194 11.6246 5.3179 11.8870
4.3027 11.5240 5.3012 11.7864
4.2860 11.4257 5.2846 11.6881
4.2694 11.3273 5.2680 11.5897
4.2527 11.2292 5.2513 11.4915
4.2361 11.1342 5.2346 11.3966
4.2194 11.0379 5.2179 11.3003
4.2027 10.9443 5.2012 11.2066
4.1860 10.8518 5.1846 11.1142
4.1694 10.7598 5.1679 11.0222
4.1527 10.6700 5.1512 10.9324
4.1360 10.5791 5.1346 10.8415
4.1194 10.4874 5.1179 10.7497
4.1027 10.3984 5.1012 10.6607
4.0860 10.3086 5.0846 10.5709
4.0694 10.2196 5.0679 10.4820
4.0527 10.1349 5.0513 10.3973
4.0361 10.0527 5.0346 10.3151
4.0194 9.9724 5.0179 10.2348
4.0027 9.8927 5.0012 10.1551
3.9860 9.8131 4.9846 10.0755
3.9694 9.7354 4.9679 9.9978
3.9527 9.6577 4.9512 9.9200
3.9360 9.5809 4.9346 9.8433
3.9194 9.5045 4.9179 9.7669
3.9026 9.4267 4.9012 9.6891
3.8860 9.3495 4.8846 9.6118
3.8694 9.2756 4.8679 9.5380
3.8527 9.2004 4.8513 9.4627
3.8361 9.1270 4.8346 9.3894
3.8194 9.0543 4.8179 9.3167
3.8027 8.9784 4.8012 9.2407
3.7860 8.9045 4.7846 9.1668
3.7694 8.8324 4.7679 9.0948
3.7527 8.7599 4.7513 9.0223
3.7360 8.6887 4.7346 8.9510
3.7194 8.6162 4.7179 8.8786
3.7027 8.5458 4.7013 8.8081
3.6860 8.4766 4.6846 8.7389
3.6694 8.4058 4.6680 8.6681
3.6527 8.3377 4.6513 8.6001
3.6360 8.2689 4.6346 8.5312
3.6194 8.2000 4.6180 8.4623
3.6027 8.1315 4.6012 8.3939
3.5860 8.0629 4.5846 8.3253
3.5694 7.9946 4.5680 8.2569
3.5527 7.9267 4.5513 8.1891
3.5360 7.8590 4.5346 8.1214
3.5194 7.7927 4.5180 8.0550
3.5027 7.7268 4.5012 7.9892
3.4860 7.6605 4.4846 7.9228
3.4694 7.5961 4.4680 7.8585
3.4527 7.5318 4.4513 7.7942
3.4361 7.4671 4.4346 7.7295
3.4194 7.4016 4.4180 7.6640
3.4027 7.3349 4.4012 7.5973
3.3860 7.2685 4.3846 7.5308
3.3694 7.2054 4.3679 7.4677
3.3527 7.1417 4.3513 7.4041
3.3360 7.0785 4.3346 7.3408
3.3194 7.0154 4.3179 7.2777
3.3027 6.9496 4.3012 7.2120
3.2860 6.8878 4.2846 7.1501
3.2693 6.8228 4.2679 7.0851
3.2527 6.7615 4.2513 7.0238
3.2360 6.6984 4.2346 6.9607
3.2194 6.6368 4.2180 6.8992
3.2027 6.5744 4.2012 6.8367
3.1860 6.5128 4.1846 6.7752
3.1694 6.4519 4.1679 6.7142
3.1527 6.3927 4.1513 6.6550
3.1360 6.3331 4.1346 6.5954
3.1194 6.2723 4.1180 6.5346
3.1026 6.2116 4.1012 6.4739
3.0860 6.1495 4.0846 6.4119
3.0694 6.0894 4.0679 6.3517
3.0527 6.0315 4.0513 6.2939
3.0360 5.9707 4.0346 6.2330
3.0194 5.9123 4.0180 6.1747
3.0027 5.8530 4.0012 6.1154
2.9860 5.7941 3.9846 6.0564
2.9694 5.7360 3.9679 5.9984
2.9527 5.6770 3.9513 5.9393
2.9360 5.6184 3.9346 5.8807
2.9194 5.5610 3.9180 5.8234
2.9027 5.5027 3.9012 5.7650
2.8860 5.4460 3.8846 5.7084
2.8694 5.3893 3.8679 5.6517
2.8527 5.3323 3.8513 5.5947
2.8360 5.2752 3.8346 5.5376
2.8194 5.2190 3.8179 5.4813
2.8027 5.1616 3.8013 5.4239
2.7860 5.1051 3.7846 5.3675
2.7694 5.0486 3.7679 5.3110
2.7527 4.9913 3.7513 5.2537
2.7360 4.9364 3.7346 5.1988
2.7194 4.8799 3.7179 5.1422
2.7027 4.8236 3.7012 5.0860
2.6860 4.7690 3.6846 5.0313
2.6694 4.7133 3.6679 4.9757
2.6527 4.6599 3.6512 4.9223
2.6360 4.6049 3.6346 4.8672
2.6194 4.5494 3.6180 4.8117
2.6027 4.4939 3.6012 4.7562
2.5860 4.4389 3.5846 4.7013
2.5694 4.3852 3.5679 4.6475
2.5528 4.3327 3.5513 4.5951
2.5360 4.2787 3.5346 4.5411
2.5194 4.2244 3.5179 4.4868
2.5026 4.1710 3.5012 4.4333
2.4860 4.1172 3.4846 4.3796
2.4694 4.0638 3.4679 4.3261
2.4527 4.0099 3.4512 4.2722
2.4360 3.9556 3.4346 4.2180
2.4193 3.9035 3.4179 4.1659
2.4027 3.8516 3.4013 4.1139
2.3860 3.7986 3.3846 4.0610
2.3694 3.7476 3.3679 4.0099
2.3527 3.6959 3.3513 3.9583
2.3361 3.6450 3.3346 3.9073
2.3193 3.5941 3.3179 3.8565
2.3026 3.5417 3.3012 3.8041
2.2860 3.4906 3.2846 3.7530
2.2694 3.4387 3.2680 3.7011
2.2527 3.3881 3.2512 3.6504
2.2360 3.3380 3.2346 3.6004
2.2194 3.2869 3.2179 3.5493
2.2027 3.2369 3.2013 3.4992
2.1860 3.1869 3.1846 3.4492
2.1694 3.1364 3.1680 3.3988
2.1527 3.0873 3.1512 3.3497
2.1360 3.0378 3.1346 3.3002
2.1193 2.9879 3.1179 3.2502
2.1027 2.9393 3.1013 3.2016
2.0861 2.8906 3.0846 3.1530
2.0694 2.8415 3.0680 3.1039
2.0527 2.7939 3.0512 3.0563
2.0360 2.7464 3.0346 3.0087
2.0194 2.6981 3.0179 2.9605
2.0027 2.6501 3.0012 2.9124
1.9860 2.6010 2.9846 2.8634
1.9694 2.5540 2.9679 2.8163
1.9527 2.5068 2.9513 2.7691
1.9361 2.4602 2.9346 2.7226
1.9194 2.4132 2.9179 2.6756
1.9027 2.3650 2.9013 2.6273
1.8860 2.3172 2.8846 2.5795
1.8694 2.2717 2.8679 2.5341
1.8526 2.2248 2.8512 2.4872
1.8361 2.1793 2.8346 2.4416
1.8194 2.1332 2.8179 2.3955
1.8027 2.0863 2.8013 2.3487
1.7860 2.0406 2.7846 2.3029
1.7694 1.9946 2.7680 2.2569
1.7526 1.9484 2.7512 2.2108
1.7360 1.9043 2.7346 2.1666
1.7194 1.8586 2.7179 2.1209
1.7027 1.8142 2.7013 2.0765
1.6860 1.7712 2.6846 2.0336
1.6694 1.7266 2.6680 1.9890
1.6527 1.6835 2.6512 1.9459
1.6361 1.6403 2.6346 1.9026
1.6193 1.5961 2.6179 1.8585
1.6027 1.5525 2.6012 1.8149
1.5860 1.5094 2.5846 1.7718
1.5694 1.4682 2.5680 1.7306
1.5527 1.4261 2.5512 1.6884
1.5361 1.3848 2.5346 1.6472
1.5194 1.3436 2.5179 1.6059
1.5027 1.3045 2.5013 1.5669
1.4860 1.2647 2.4845 1.5270
1.4694 1.2251 2.4679 1.4874
1.4527 1.1853 2.4513 1.4477
1.4361 1.1458 2.4347 1.4081
1.4194 1.1089 2.4179 1.3712
1.4027 1.0705 2.4013 1.3329
1.3860 1.0337 2.3846 1.2960
1.3694 0.9986 2.3679 1.2609
1.3527 0.9648 2.3512 1.2272
1.3360 0.9321 2.3346 1.1944
1.3194 0.8997 2.3180 1.1621
1.3027 0.8668 2.3012 1.1292
1.2860 0.8355 2.2846 1.0979
1.2694 0.8047 2.2679 1.0671
1.2528 0.7741 2.2513 1.0365
1.2361 0.7445 2.2346 1.0069
1.2194 0.7139 2.2179 0.9763
1.2026 0.6832 2.2012 0.9456
1.1860 0.6535 2.1846 0.9158
1.1694 0.6233 2.1679 0.8857
1.1527 0.5944 2.1512 0.8567
1.1360 0.5661 2.1346 0.8284
1.1194 0.5368 2.1179 0.7992
1.1027 0.5080 2.1012 0.7704
1.0860 0.4787 2.0846 0.7411
1.0694 0.4521 2.0679 0.7145
1.0527 0.4257 2.0513 0.6881
1.0360 0.4007 2.0346 0.6630
1.0194 0.3754 2.0179 0.6377
1.0027 0.3500 2.0012 0.6124
0.9860 0.3272 1.9846 0.5895
0.9694 0.3023 1.9679 0.5646
0.9527 0.2796 1.9513 0.5420
0.9360 0.2565 1.9346 0.5189
0.9194 0.2340 1.9180 0.4964
0.9027 0.2109 1.9012 0.4732
0.8860 0.1889 1.8846 0.4512
0.8694 0.1698 1.8679 0.4322
0.8527 0.1512 1.8513 0.4136
0.8405 0.1376 1.8390 0.4000
0.8404 0.1376 1.8390 0.3999
0.8564 0.1494 1.8550 0.4118
0.8737 0.1812 1.8722 0.4436
0.8905 0.2220 1.8890 0.4844
0.9072 0.2656 1.9057 0.5280
0.9239 0.3080 1.9224 0.5703
0.9405 0.3516 1.9391 0.6139
0.9572 0.3947 1.9558 0.6571
0.9738 0.4375 1.9724 0.6999
0.9905 0.4826 1.9890 0.7449
1.0072 0.5288 2.0057 0.7912
1.0238 0.5769 2.0224 0.8392
1.0405 0.6236 2.0391 0.8859
1.0572 0.6726 2.0558 0.9350
1.0738 0.7197 2.0724 0.9821
1.0905 0.7695 2.0891 1.0319
1.1072 0.8177 2.1057 1.0801
1.1238 0.8658 2.1224 1.1282
1.1405 0.9148 2.1390 1.1771
1.1572 0.9650 2.1557 1.2273
1.1738 1.0161 2.1724 1.2784
1.1906 1.0692 2.1891 1.3316
1.2072 1.1254 2.2058 1.3877
1.2239 1.1832 2.2225 1.4456
1.2405 1.2412 2.2391 1.5036
1.2572 1.2993 2.2557 1.5616
1.2738 1.3587 2.2724 1.6210
1.2905 1.4197 2.2891 1.6821
1.3072 1.4814 2.3057 1.7438
1.3239 1.5448 2.3224 1.8072
1.3406 1.6075 2.3391 1.8698
1.3572 1.6726 2.3558 1.9349
1.3739 1.7357 2.3724 1.9980
1.3906 1.8004 2.3891 2.0628
1.4072 1.8662 2.4058 2.1286
1.4238 1.9308 2.4224 2.1931
1.4405 1.9950 2.4390 2.2574
1.4572 2.0598 2.4558 2.3222
1.4739 2.1254 2.4724 2.3878
1.4906 2.1904 2.4891 2.4528
1.5072 2.2552 2.5058 2.5176
1.5239 2.3210 2.5224 2.5834
1.5405 2.3860 2.5391 2.6483
1.5572 2.4517 2.5557 2.7141
1.5738 2.5168 2.5724 2.7792
1.5905 2.5846 2.5891 2.8469
1.6072 2.6504 2.6058 2.9128
1.6238 2.7160 2.6224 2.9783
1.6406 2.7827 2.6391 3.0451
1.6572 2.8493 2.6558 3.1116
1.6738 2.9157 2.6724 3.1781
1.6905 2.9819 2.6891 3.2443
1.7072 3.0481 2.7057 3.3104
1.7239 3.1153 2.7224 3.3776
1.7406 3.1823 2.7391 3.4447
1.7572 3.2497 2.7558 3.5120
1.7739 3.3165 2.7724 3.5789
1.7906 3.3826 2.7891 3.6449
1.8072 3.4493 2.8057 3.7117
1.8238 3.5173 2.8224 3.7797
1.8405 3.5836 2.8391 3.8460
1.8572 3.6511 2.8558 3.9135
1.8739 3.7181 2.8724 3.9804
1.8905 3.7853 2.8891 4.0477
1.9072 3.8546 2.9058 4.1169
1.9239 3.9222 2.9224 4.1846
1.9405 3.9901 2.9391 4.2525
1.9572 4.0578 2.9557 4.3202
1.9738 4.1243 2.9724 4.3866
1.9905 4.1918 2.9891 4.4542
2.0072 4.2604 3.0058 4.5228
2.0238 4.3272 3.0224 4.5896
2.0406 4.3958 3.0391 4.6582
2.0572 4.4637 3.0558 4.7260
2.0738 4.5310 3.0724 4.7934
2.0905 4.6003 3.0891 4.8627
2.1072 4.6680 3.1057 4.9304
2.1238 4.7363 3.1224 4.9986
2.1406 4.8048 3.1391 5.0672
2.1572 4.8727 3.1558 5.1350
2.1739 4.9404 3.1724 5.2028
2.1906 5.0103 3.1891 5.2727
2.2072 5.0800 3.2058 5.3423
2.2238 5.1494 3.2224 5.4118
2.2406 5.2188 3.2391 5.4811
2.2572 5.2881 3.2557 5.5505
2.2739 5.3578 3.2724 5.6202
2.2905 5.4258 3.2891 5.6882
2.3072 5.4957 3.3058 5.7580
2.3239 5.5645 3.3225 5.8268
2.3406 5.6325 3.3391 5.8949
2.3572 5.7016 3.3557 5.9640
2.3738 5.7709 3.3724 6.0332
2.3905 5.8412 3.3890 6.1035
2.4072 5.9118 3.4058 6.1741
2.4239 5.9808 3.4224 6.2432
2.4406 6.0500 3.4391 6.3124
2.4572 6.1201 3.4558 6.3824
2.4738 6.1888 3.4724 6.4511
2.4905 6.2590 3.4890 6.5213
2.5072 6.3288 3.5058 6.5912
2.5239 6.3976 3.5225 6.6599
2.5406 6.4690 3.5391 6.7314
2.5572 6.5385 3.5558 6.8008
2.5738 6.6081 3.5724 6.8704
2.5905 6.6779 3.5890 6.9403
2.6072 6.7483 3.6058 7.0107
2.6238 6.8175 3.6224 7.0799
2.6406 6.8886 3.6391 7.1509
2.6572 6.9559 3.6557 7.2183
2.6739 7.0261 3.6725 7.2885
2.6906 7.0951 3.6891 7.3574
2.7072 7.1654 3.7058 7.4277
2.7239 7.2346 3.7224 7.4969
2.7406 7.3050 3.7391 7.5673
2.7571 7.3743 3.7557 7.6367
2.7738 7.4445 3.7724 7.7069
2.7905 7.5141 3.7890 7.7764
2.8072 7.5846 3.8058 7.8470
2.8239 7.6555 3.8224 7.9179
2.8406 7.7246 3.8391 7.9869
2.8572 7.7952 3.8557 8.0576
2.8739 7.8661 3.8724 8.1285
2.8905 7.9380 3.8891 8.2003
2.9072 8.0099 3.9057 8.2723
2.9238 8.0809 3.9224 8.3432
2.9405 8.1537 3.9391 8.4161
2.9572 8.2256 3.9558 8.4880
2.9739 8.2963 3.9724 8.5587
2.9905 8.3672 3.9891 8.6296
3.0072 8.4400 4.0058 8.7024
3.0238 8.5098 4.0224 8.7722
3.0405 8.5834 4.0391 8.8458
3.0572 8.6566 4.0558 8.9190
3.0739 8.7285 4.0724 8.9909
3.0906 8.8026 4.0891 9.0650
3.1072 8.8740 4.1058 9.1364
3.1239 8.9460 4.1224 9.2083
3.1406 9.0196 4.1391 9.2820
3.1572 9.0892 4.1558 9.3515
3.1738 9.1612 4.1724 9.4235
3.1905 9.2327 4.1891 9.4951
3.2072 9.3057 4.2058 9.5681
3.2239 9.3802 4.2224 9.6426
3.2406 9.4526 4.2391 9.7150
3.2572 9.5249 4.2557 9.7872
3.2738 9.5986 4.2724 9.8610
3.2906 9.6712 4.2891 9.9335
3.3072 9.7432 4.3057 10.0055
3.3238 9.8166 4.3224 10.0790
3.3406 9.8883 4.3391 10.1507
3.3572 9.9616 4.3558 10.2240
3.3739 10.0345 4.3724 10.2968
3.3906 10.1071 4.3891 10.3694
3.4072 10.1826 4.4058 10.4450
3.4239 10.2558 4.4224 10.5182
3.4405 10.3297 4.4390 10.5921
3.4572 10.4029 4.4557 10.6653
3.4738 10.4747 4.4724 10.7371
3.4905 10.5484 4.4891 10.8108
3.5072 10.6207 4.5057 10.8831
3.5239 10.6956 4.5224 10.9579
3.5405 10.7712 4.5391 11.0336
3.5572 10.8468 4.5558 11.1092
3.5738 10.9236 4.5724 11.1860
3.5905 10.9993 4.5890 11.2617
3.6072 11.0748 4.6058 11.3371
3.6239 11.1498 4.6224 11.4121
3.6406 11.2243 4.6391 11.4867
3.6572 11.2979 4.6558 11.5603
3.6738 11.3726 4.6724 11.6350
3.6905 11.4461 4.6890 11.7084
3.7072 11.5213 4.7057 11.7837
3.7238 11.5970 4.7224 11.8594
3.7405 11.6720 4.7391 11.9344
3.7572 11.7489 4.7558 12.0113
3.7738 11.8245 4.7724 12.0869
3.7906 11.8988 4.7891 12.1612
3.8072 11.9747 4.8057 12.2370
3.8239 12.0520 4.8225 12.3144
3.8405 12.1261 4.8390 12.3885
3.8572 12.2052 4.8558 12.4675
3.8738 12.2842 4.8724 12.5465
3.8905 12.3645 4.8891 12.6269
3.9072 12.4466 4.9058 12.7090
3.9239 12.5298 4.9225 12.7921
3.9405 12.6161 4.9391 12.8785
3.9572 12.7025 4.9558 12.9649
3.9738 12.7885 4.9724 13.0509
3.9905 12.8770 4.9891 13.1394
4.0072 12.9665 5.0058 13.2289
4.0239 13.0559 5.0224 13.3183
4.0405 13.1456 5.0391 13.4080
4.0572 13.2333 5.0558 13.4957
4.0738 13.3218 5.0724 13.5842
4.0905 13.4134 5.0891 13.6758
4.1072 13.5026 5.1058 13.7649
4.1238 13.5938 5.1224 13.8562
4.1405 13.6852 5.1391 13.9476
4.1572 13.7769 5.1558 14.0392
4.1739 13.8697 5.1724 14.1321
4.1906 13.9630 5.1891 14.2254
4.2072 14.0579 5.2057 14.3203
4.2239 14.1560 5.2224 14.4184
4.2406 14.2535 5.2391 14.5159
4.2572 14.3522 5.2557 14.6146
4.2738 14.4498 5.2724 14.7121
4.2906 14.5510 5.2891 14.8134
4.3072 14.6509 5.3058 14.9133
4.3239 14.7527 5.3225 15.0150
4.3405 14.8548 5.3390 15.1172
4.3572 14.9611 5.3557 15.2234
4.3738 15.0670 5.3724 15.3294
4.3905 15.1742 5.3891 15.4366
4.4072 15.2850 5.4057 15.5474
4.4239 15.3951 5.4224 15.6575
4.4406 15.5053 5.4391 15.7676
4.4572 15.6161 5.4558 15.8785
4.4738 15.7232 5.4724 15.9856
4.4905 15.8366 5.4891 16.0989
4.5072 15.9468 5.5058 16.2091
4.5238 16.0579 5.5224 16.3203
4.5405 16.1725 5.5390 16.4348
4.5572 16.2869 5.5558 16.5493
4.5738 16.4015 5.5724 16.6639
4.5906 16.5166 5.5891 16.7789
4.6072 16.6296 5.6057 16.8920
4.6238 16.7442 5.6224 17.0065
4.6405 16.8580 5.6391 17.1203
4.6572 16.9730 5.6558 17.2354
4.6738 17.0893 5.6724 17.3516
4.6906 17.2098 5.6891 17.4721
4.7072 17.3294 5.7058 17.5918
4.7239 17.4514 5.7225 17.7138
4.7405 17.5703 5.7391 17.8326
4.7572 17.6908 5.7557 17.9532
4.7738 17.8134 5.7724 18.0758
4.7905 17.9366 5.7891 18.1989
4.8071 18.0653 5.8057 18.3277
4.8239 18.1960 5.8224 18.4584
4.8405 18.3232 5.8391 18.5856
4.8572 18.4556 5.8558 18.7179
4.8738 18.5897 5.8724 18.8520
4.8905 18.7279 5.8891 18.9903
4.9072 18.8671 5.9057 19.1295
4.9238 19.0120 5.9224 19.2744
4.9405 19.1609 5.9391 19.4233
4.9572 19.3121 5.9558 19.5745
4.9739 19.4615 5.9724 19.7239
4.9905 19.6120 5.9891 19.8744
5.0072 19.7637 6.0058 20.0261
5.0238 19.9144 6.0224 20.1768
5.0405 20.0689 6.0391 20.3313
5.0572 20.2239 6.0558 20.4862
5.0738 20.3789 6.0724 20.6413
5.0906 20.5412 6.0891 20.8036
5.1072 20.6985 6.1058 20.9608
5.1239 20.8600 6.1224 21.1224
5.1406 21.0199 6.1391 21.2823
5.1572 21.1783 6.1558 21.4407
5.1738 21.3395 6.1724 21.6019
5.1905 21.5015 6.1891 21.7638
5.2072 21.6640 6.2057 21.9264
5.2239 21.8313 6.2224 22.0937
5.2406 21.9962 6.2391 22.2586
5.2572 22.1635 6.2557 22.4259
5.2739 22.3346 6.2724 22.5969
5.2906 22.5021 6.2891 22.7644
5.3072 22.6717 6.3057 22.9340
5.3238 22.8440 6.3224 23.1063
5.3405 23.0155 6.3391 23.2779
5.3572 23.1896 6.3557 23.4520
5.3739 23.3627 6.3724 23.6251
5.3905 23.5381 6.3891 23.8004
5.4072 23.7162 6.4058 23.9786
5.4238 23.8879 6.4224 24.1503
5.4405 24.0645 6.4390 24.3269
5.4572 24.2425 6.4557 24.5048
5.4738 24.4217 6.4724 24.6841
5.4905 24.6044 6.4891 24.8667
5.5028 24.7378 6.5014 25.0002
5.5028 24.7382 6.5014 25.0005
5.4869 24.5846 6.4854 24.8470
5.4738 24.3342 6.4724 24.5966
5.4619 24.0839 6.4604 24.3463
5.4496 23.8338 6.4481 24.0961
5.4368 23.5837 6.4354 23.8461
5.4236 23.3335 6.4222 23.5959
5.4100 23.0835 6.4086 23.3458
5.3963 22.8332 6.3949 23.0956
5.3823 22.5830 6.3808 22.8454
5.3679 22.3326 6.3664 22.5950
5.3533 22.0823 6.3519 22.3447
5.3385 21.8321 6.3371 22.0944
5.3233 21.5818 6.3219 21.8442
5.3080 21.3317 6.3066 21.5941
5.2924 21.0815 6.2910 21.3438
5.2765 20.8313 6.2750 21.0937
5.2606 20.5811 6.2591 20.8435
5.2444 20.3308 6.2429 20.5931
5.2278 20.0805 6.2263 20.3429
5.2110 19.8320 6.2096 20.0944
5.1944 19.5933 6.1930 19.8557
5.1778 19.3581 6.1763 19.6205
5.1611 19.1265 6.1597 19.3889
5.1444 18.8975 6.1430 19.1598
5.1278 18.6698 6.1263 18.9322
5.1110 18.4416 6.1096 18.7040
5.0944 18.2187 6.0930 18.4811
5.0777 17.9942 6.0763 18.2566
5.0611 17.7792 6.0596 18.0415
5.0444 17.5686 6.0430 17.8309
5.0278 17.3609 6.0263 17.6232
5.0110 17.1588 6.0096 17.4212
4.9944 16.9605 5.9930 17.2229
4.9777 16.7645 5.9763 17.0268
4.9611 16.5774 5.9596 16.8397
4.9444 16.3898 5.9430 16.6521
4.9278 16.2073 5.9263 16.4697
4.9110 16.0287 5.9096 16.2911
4.8944 15.8547 5.8930 16.1171
4.8777 15.6873 5.8763 15.9496
4.8611 15.5249 5.8596 15.7873
4.8444 15.3645 5.8430 15.6268
4.8277 15.2114 5.8263 15.4737
4.8110 15.0618 5.8096 15.3241
4.7944 14.9131 5.7930 15.1754
4.7777 14.7676 5.7763 15.0300
4.7611 14.6222 5.7597 14.8846
4.7444 14.4802 5.7430 14.7425
4.7278 14.3394 5.7263 14.6017
4.7111 14.1990 5.7096 14.4613
4.6944 14.0627 5.6930 14.3251
4.6777 13.9249 5.6763 14.1873
4.6610 13.7893 5.6596 14.0517
4.6444 13.6581 5.6429 13.9204
4.6278 13.5260 5.6263 13.7883
4.6111 13.3967 5.6096 13.6591
4.5944 13.2695 5.5930 13.5319
4.5777 13.1409 5.5763 13.4032
4.5610 13.0140 5.5596 13.2763
4.5444 12.8917 5.5430 13.1540
4.5278 12.7708 5.5263 13.0331
4.5111 12.6512 5.5096 12.9136
4.4944 12.5330 5.4930 12.7954
4.4778 12.4149 5.4763 12.6773
4.4611 12.3003 5.4596 12.5627
4.4444 12.1833 5.4430 12.4456
4.4277 12.0710 5.4263 12.3333
4.4110 11.9610 5.4096 12.2234
4.3944 11.8512 5.3930 12.1135
4.3777 11.7460 5.3763 12.0084
4.3611 11.6432 5.3596 11.9056
4.3444 11.5408 5.3430 11.8032
4.3278 11.4407 5.3263 11.7031
4.3111 11.3405 5.3096 11.6029
4.2944 11.2416 5.2930 11.5039
4.2778 11.1459 5.2763 11.4083
4.2611 11.0471 5.2596 11.3094
4.2444 10.9511 5.2430 11.2134
4.2278 10.8571 5.2263 11.1194
4.2111 10.7627 5.2096 11.0251
4.1944 10.6714 5.1929 10.9338
4.1777 10.5797 5.1763 10.8421
4.1610 10.4878 5.1596 10.7501
4.1444 10.3996 5.1430 10.6620
4.1277 10.3075 5.1262 10.5698
4.1111 10.2182 5.1096 10.4806
4.0944 10.1300 5.0930 10.3924
4.0777 10.0418 5.0763 10.3041
4.0610 9.9572 5.0596 10.2196
4.0444 9.8764 5.0430 10.1388
4.0278 9.7956 5.0263 10.0580
4.0111 9.7174 5.0096 9.9798
3.9944 9.6386 4.9929 9.9010
3.9777 9.5609 4.9763 9.8232
3.9610 9.4843 4.9596 9.7467
3.9444 9.4062 4.9430 9.6685
3.9277 9.3299 4.9263 9.5923
3.9111 9.2545 4.9096 9.5169
3.8944 9.1779 4.8929 9.4403
3.8777 9.1035 4.8763 9.3659
3.8611 9.0304 4.8596 9.2927
3.8444 8.9563 4.8430 9.2187
3.8278 8.8836 4.8263 9.1459
3.8110 8.8108 4.8096 9.0731
3.7944 8.7371 4.7929 8.9994
3.7778 8.6665 4.7763 8.9289
3.7610 8.5949 4.7596 8.8572
3.7444 8.5243 4.7430 8.7867
3.7277 8.4540 4.7263 8.7164
3.7111 8.3835 4.7096 8.6458
3.6944 8.3146 4.6930 8.5769
3.6778 8.2457 4.6763 8.5081
3.6611 8.1771 4.6596 8.4395
3.6444 8.1089 4.6430 8.3713
3.6277 8.0392 4.6263 8.3015
3.6111 7.9707 4.6096 8.2331
3.5944 7.9038 4.5930 8.1661
3.5778 7.8355 4.5763 8.0979
3.5611 7.7673 4.5596 8.0296
3.5444 7.7019 4.5430 7.9643
3.5278 7.6333 4.5263 7.8957
3.5111 7.5687 4.5096 7.8311
3.4944 7.5030 4.4930 7.7653
3.4778 7.4367 4.4763 7.6990
3.4611 7.3734 4.4596 7.6358
3.4444 7.3069 4.4430 7.5693
3.4277 7.2416 4.4263 7.5040
3.4111 7.1769 4.4097 7.4392
3.3944 7.1095 4.3930 7.3719
3.3778 7.0468 4.3763 7.3092
3.3610 6.9820 4.3596 7.2444
3.3444 6.9189 4.3430 7.1812
3.3277 6.8565 4.3263 7.1188
3.3111 6.7914 4.3096 7.0538
3.2944 6.7285 4.2930 6.9908
3.2778 6.6665 4.2763 6.9288
3.2610 6.6026 4.2596 6.8650
3.2444 6.5409 4.2430 6.8032
3.2277 6.4781 4.2263 6.7405
3.2110 6.4164 4.2096 6.6787
3.1944 6.3559 4.1930 6.6182
3.1777 6.2940 4.1763 6.5564
3.1611 6.2343 4.1596 6.4966
3.1444 6.1752 4.1430 6.4376
3.1277 6.1135 4.1263 6.3759
3.1110 6.0533 4.1096 6.3156
3.0944 5.9924 4.0930 6.2548
3.0777 5.9322 4.0763 6.1946
3.0610 5.8734 4.0596 6.1358
3.0444 5.8138 4.0430 6.0762
3.0277 5.7544 4.0263 6.0168
3.0111 5.6970 4.0096 5.9593
2.9944 5.6368 3.9930 5.8992
2.9777 5.5791 3.9763 5.8414
2.9610 5.5225 3.9596 5.7849
2.9444 5.4625 3.9430 5.7249
2.9278 5.4045 3.9263 5.6668
2.9110 5.3478 3.9096 5.6102
2.8944 5.2902 3.8930 5.5526
2.8777 5.2339 3.8763 5.4962
2.8611 5.1776 3.8597 5.4400
2.8444 5.1203 3.8430 5.3827
2.8277 5.0653 3.8263 5.3277
2.8111 5.0086 3.8096 5.2710
2.7944 4.9524 3.7930 5.2148
2.7777 4.8963 3.7763 5.1586
2.7611 4.8391 3.7596 5.1015
2.7444 4.7830 3.7430 5.0453
2.7278 4.7275 3.7263 4.9898
2.7110 4.6718 3.7096 4.9341
2.6944 4.6176 3.6930 4.8800
2.6777 4.5625 3.6763 4.8248
2.6610 4.5079 3.6596 4.7703
2.6443 4.4530 3.6429 4.7154
2.6277 4.3987 3.6263 4.6611
2.6110 4.3440 3.6096 4.6063
2.5944 4.2900 3.5930 4.5523
2.5777 4.2357 3.5762 4.4981
2.5611 4.1833 3.5597 4.4456
2.5444 4.1297 3.5430 4.3921
2.5278 4.0758 3.5263 4.3382
2.5110 4.0231 3.5096 4.2854
2.4944 3.9692 3.4930 4.2315
2.4777 3.9154 3.4763 4.1778
2.4611 3.8645 3.4596 4.1268
2.4444 3.8098 3.4429 4.0721
2.4278 3.7570 3.4263 4.0194
2.4110 3.7052 3.4096 3.9675
2.3944 3.6527 3.3930 3.9150
2.3777 3.6017 3.3763 3.8641
2.3611 3.5507 3.3596 3.8131
2.3444 3.4992 3.3430 3.7616
2.3278 3.4492 3.3263 3.7116
2.3110 3.3972 3.3096 3.6596
2.2944 3.3461 3.2930 3.6085
2.2777 3.2952 3.2763 3.5576
2.2611 3.2447 3.2596 3.5070
2.2444 3.1937 3.2429 3.4561
2.2278 3.1442 3.2263 3.4066
2.2110 3.0938 3.2096 3.3562
2.1944 3.0455 3.1930 3.3078
2.1777 2.9948 3.1763 3.2572
2.1611 2.9454 3.1596 3.2077
2.1444 2.8957 3.1429 3.1581
2.1277 2.8462 3.1263 3.1086
2.1110 2.7965 3.1096 3.0589
2.0944 2.7489 3.0930 3.0112
2.0777 2.7005 3.0763 2.9628
2.0611 2.6534 3.0596 2.9158
2.0444 2.6054 3.0429 2.8677
2.0278 2.5583 3.0263 2.8206
2.0110 2.5117 3.0096 2.7741
1.9944 2.4632 2.9930 2.7256
1.9777 2.4161 2.9762 2.6785
1.9611 2.3698 2.9596 2.6322
1.9444 2.3216 2.9430 2.5839
1.9278 2.2743 2.9263 2.5367
1.9111 2.2283 2.9096 2.4907
1.8944 2.1811 2.8930 2.4435
1.8777 2.1354 2.8763 2.3978
1.8610 2.0896 2.8596 2.3519
1.8444 2.0429 2.8429 2.3052
1.8277 1.9975 2.8263 2.2598
1.8110 1.9523 2.8096 2.2146
1.7944 1.9063 2.7930 2.1686
1.7777 1.8612 2.7763 2.1236
1.7610 1.8152 2.7596 2.0776
1.7444 1.7709 2.7429 2.0333
1.7277 1.7269 2.7263 1.9892
1.7111 1.6826 2.7096 1.9450
1.6944 1.6397 2.6930 1.9021
1.6777 1.5971 2.6763 1.8594
1.6611 1.5542 2.6596 1.8166
1.6444 1.5106 2.6430 1.7730
1.6277 1.4671 2.6263 1.7295
1.6110 1.4250 2.6096 1.6873
1.5944 1.3830 2.5930 1.6454
1.5777 1.3424 2.5763 1.6047
1.5610 1.3014 2.5596 1.5637
1.5444 1.2623 2.5430 1.5247
1.5278 1.2230 2.5263 1.4854
1.5111 1.1836 2.5096 1.4459
1.4944 1.1454 2.4930 1.4078
1.4777 1.1063 2.4763 1.3687
1.4610 1.0696 2.4596 1.3319
1.4444 1.0303 2.4430 1.2926
1.4277 0.9946 2.4263 1.2569
1.4110 0.9604 2.4096 1.2228
1.3944 0.9269 2.3930 1.1892
1.3778 0.8949 2.3763 1.1572
1.3610 0.8615 2.3596 1.1239
1.3444 0.8299 2.3430 1.0922
1.3277 0.7986 2.3262 1.0609
1.3111 0.7673 2.3096 1.0296
1.2944 0.7362 2.2929 0.9986
1.2778 0.7066 2.2763 0.9689
1.2611 0.6760 2.2597 0.9384
1.2444 0.6464 2.2430 0.9087
1.2277 0.6170 2.2263 0.8794
1.2111 0.5868 2.2096 0.8492
1.1944 0.5582 2.1929 0.8206
1.1777 0.5289 2.1763 0.7912
1.1610 0.5005 2.1596 0.7628
1.1444 0.4730 2.1430 0.7354
1.1277 0.4443 2.1263 0.7066
1.1111 0.4181 2.1096 0.6804
1.0944 0.3927 2.0930 0.6551
1.0778 0.3662 2.0763 0.6286
1.0610 0.3413 2.0596 0.6037
1.0444 0.3171 2.0430 0.5795
1.0277 0.2930 2.0263 0.5554
1.0111 0.2699 2.0096 0.5323
0.9944 0.2466 1.9929 0.5089
0.9778 0.2242 1.9763 0.4866
0.9610 0.2023 1.9596 0.4647
0.9444 0.1798 1.9430 0.4422
0.9277 0.1604 1.9263 0.4228
0.9111 0.1430 1.9096 0.4054
0.9069 0.1376 1.9055 0.4000
0.9069 0.1375 1.9055 0.3999
0.9069 0.1374 1.9054 0.3998
0.9228 0.1505 1.9214 0.4129
0.9402 0.1840 1.9387 0.4463
0.9569 0.2260 1.9554 0.4884
0.9736 0.2679 1.9721 0.5303
0.9902 0.3100 1.9888 0.5724
1.0069 0.3530 2.0055 0.6154
1.0236 0.3966 2.0221 0.6589
1.0403 0.4399 2.0388 0.7023
1.0570 0.4862 2.0555 0.7486
1.0736 0.5332 2.0722 0.7956
1.0902 0.5821 2.0888 0.8444
1.1069 0.6307 2.1055 0.8931
1.1236 0.6784 2.1221 0.9407
1.1402 0.7270 2.1388 0.9894
1.1569 0.7763 2.1554 1.0386
1.1736 0.8251 2.1721 1.0875
1.1903 0.8743 2.1888 1.1367
1.2070 0.9236 2.2055 1.1860
1.2236 0.9754 2.2222 1.2378
1.2403 1.0269 2.2388 1.2893
1.2569 1.0810 2.2554 1.3433
1.2735 1.1376 2.2721 1.3999
1.2902 1.1952 2.2888 1.4575
1.3070 1.2541 2.3055 1.5165
1.3236 1.3141 2.3222 1.5764
1.3403 1.3739 2.3388 1.6362
1.3570 1.4360 2.3555 1.6984
1.3736 1.4980 2.3722 1.7604
1.3902 1.5610 2.3888 1.8234
1.4069 1.6260 2.4055 1.8883
1.4236 1.6906 2.4222 1.9530
1.4402 1.7549 2.4388 2.0173
1.4569 1.8191 2.4554 2.0814
1.4736 1.8831 2.4721 2.1455
1.4903 1.9483 2.4888 2.2107
1.5070 2.0128 2.5055 2.2752
1.5236 2.0764 2.5222 2.3388
1.5402 2.1422 2.5388 2.4046
1.5569 2.2067 2.5555 2.4691
1.5736 2.2718 2.5721 2.5341
1.5903 2.3399 2.5888 2.6023
1.6069 2.4058 2.6055 2.6682
1.6236 2.4707 2.6222 2.7331
1.6403 2.5365 2.6388 2.7989
1.6569 2.6033 2.6555 2.8657
1.6736 2.6698 2.6721 2.9321
1.6902 2.7357 2.6888 2.9981
1.7069 2.8012 2.7055 3.0636
1.7236 2.8699 2.7222 3.1322
1.7403 2.9361 2.7388 3.1984
1.7570 3.0027 2.7555 3.2650
1.7736 3.0696 2.7721 3.3319
1.7903 3.1358 2.7888 3.3981
1.8069 3.2017 2.8054 3.4641
1.8236 3.2694 2.8222 3.5317
1.8402 3.3353 2.8388 3.5977
1.8570 3.4030 2.8555 3.6654
1.8736 3.4702 2.8722 3.7325
1.8903 3.5388 2.8889 3.8011
1.9069 3.6055 2.9055 3.8679
1.9236 3.6737 2.9222 3.9361
1.9402 3.7413 2.9388 4.0037
1.9569 3.8094 2.9555 4.0717
1.9736 3.8759 2.9721 4.1382
1.9903 3.9429 2.9888 4.2053
2.0070 4.0110 3.0055 4.2734
2.0236 4.0785 3.0222 4.3408
2.0402 4.1463 3.0388 4.4086
2.0570 4.2145 3.0555 4.4768
2.0736 4.2809 3.0721 4.5432
2.0903 4.3491 3.0888 4.6115
2.1069 4.4172 3.1054 4.6795
2.1236 4.4854 3.1222 4.7477
2.1403 4.5537 3.1388 4.8160
2.1570 4.6210 3.1555 4.8833
2.1736 4.6894 3.1721 4.9518
2.1903 4.7592 3.1888 5.0216
2.2069 4.8273 3.2055 5.0897
2.2236 4.8979 3.2222 5.1603
2.2402 4.9666 3.2388 5.2290
2.2570 5.0366 3.2555 5.2989
2.2736 5.1049 3.2722 5.3673
2.2903 5.1730 3.2888 5.4354
2.3069 5.2425 3.3055 5.5049
2.3236 5.3121 3.3222 5.5744
2.3402 5.3798 3.3388 5.6422
2.3569 5.4495 3.3555 5.7119
2.3735 5.5181 3.3721 5.7804
2.3903 5.5874 3.3888 5.8498
2.4070 5.6590 3.4055 5.9213
2.4236 5.7282 3.4222 5.9905
2.4402 5.7973 3.4388 6.0597
2.4569 5.8671 3.4555 6.1295
2.4736 5.9353 3.4721 6.1977
2.4902 6.0061 3.4888 6.2685
2.5069 6.0747 3.5054 6.3370
2.5237 6.1449 3.5222 6.4073
2.5403 6.2154 3.5388 6.4778
2.5570 6.2860 3.5555 6.5484
2.5735 6.3552 3.5721 6.6176
2.5902 6.4258 3.5888 6.6881
2.6069 6.4953 3.6055 6.7577
2.6236 6.5644 3.6222 6.8268
2.6402 6.6354 3.6388 6.8978
2.6570 6.7040 3.6555 6.9663
2.6736 6.7731 3.6722 7.0355
2.6903 6.8433 3.6889 7.1056
2.7069 6.9126 3.7055 7.1749
2.7236 6.9832 3.7222 7.2456
2.7403 7.0536 3.7388 7.3159
2.7569 7.1214 3.7554 7.3838
2.7736 7.1925 3.7721 7.4549
2.7903 7.2615 3.7888 7.5239
2.8070 7.3326 3.8055 7.5950
2.8236 7.4021 3.8222 7.6645
2.8402 7.4714 3.8388 7.7338
2.8569 7.5424 3.8555 7.8048
2.8736 7.6134 3.8722 7.8758
2.8902 7.6850 3.8888 7.9473
2.9069 7.7570 3.9054 8.0193
2.9236 7.8292 3.9222 8.0916
2.9402 7.9006 3.9388 8.1629
2.9570 7.9727 3.9555 8.2350
2.9736 8.0426 3.9722 8.3050
2.9903 8.1147 3.9888 8.3771
3.0070 8.1879 4.0055 8.4503
3.0236 8.2582 4.0221 8.5205
3.0402 8.3310 4.0388 8.5934
3.0570 8.4043 4.0555 8.6666
3.0736 8.4766 4.0722 8.7389
3.0903 8.5499 4.0888 8.8122
3.1070 8.6208 4.1055 8.8832
3.1236 8.6941 4.1222 8.9565
3.1403 8.7668 4.1388 9.0291
3.1569 8.8364 4.1554 9.0987
3.1736 8.9081 4.1721 9.1705
3.1903 8.9809 4.1888 9.2432
3.2070 9.0541 4.2055 9.3164
3.2236 9.1281 4.2222 9.3905
3.2403 9.2007 4.2388 9.4631
3.2569 9.2730 4.2555 9.5353
3.2736 9.3462 4.2721 9.6086
3.2902 9.4187 4.2888 9.6811
3.3069 9.4916 4.3055 9.7539
3.3236 9.5655 4.3222 9.8279
3.3403 9.6379 4.3388 9.9003
3.3569 9.7100 4.3555 9.9723
3.3736 9.7836 4.3722 10.0460
3.3902 9.8560 4.3888 10.1184
3.4069 9.9315 4.4055 10.1938
3.4236 10.0053 4.4221 10.2677
3.4402 10.0793 4.4388 10.3417
3.4569 10.1527 4.4555 10.4151
3.4736 10.2233 4.4722 10.4857
3.4902 10.2979 4.4888 10.5603
3.5070 10.3714 4.5055 10.6338
3.5236 10.4450 4.5221 10.7074
3.5402 10.5218 4.5388 10.7841
3.5569 10.5974 4.5554 10.8597
3.5736 10.6743 4.5721 10.9366
3.5902 10.7507 4.5888 11.0131
3.6070 10.8257 4.6055 11.0881
3.6236 10.8996 4.6222 11.1620
3.6403 10.9753 4.6389 11.2377
3.6569 11.0490 4.6555 11.3114
3.6736 11.1236 4.6721 11.3860
3.6902 11.1988 4.6888 11.4612
3.7069 11.2751 4.7055 11.5375
3.7236 11.3510 4.7221 11.6134
3.7403 11.4272 4.7389 11.6896
3.7569 11.5021 4.7555 11.7645
3.7736 11.5784 4.7722 11.8408
3.7902 11.6521 4.7888 11.9145
3.8069 11.7283 4.8055 11.9906
3.8236 11.8051 4.8222 12.0675
3.8403 11.8813 4.8388 12.1437
3.8569 11.9579 4.8554 12.2203
3.8736 12.0366 4.8721 12.2990
3.8902 12.1157 4.8888 12.3781
3.9070 12.1983 4.9055 12.4606
3.9236 12.2788 4.9222 12.5411
3.9402 12.3647 4.9388 12.6271
3.9569 12.4506 4.9555 12.7130
3.9736 12.5383 4.9722 12.8006
3.9902 12.6254 4.9888 12.8877
4.0070 12.7164 5.0056 12.9788
4.0236 12.8057 5.0222 13.0680
4.0403 12.8963 5.0388 13.1586
4.0569 12.9837 5.0554 13.2461
4.0736 13.0723 5.0721 13.3347
4.0902 13.1643 5.0888 13.4266
4.1070 13.2539 5.1055 13.5163
4.1236 13.3435 5.1221 13.6059
4.1403 13.4364 5.1389 13.6987
4.1569 13.5271 5.1555 13.7894
4.1736 13.6196 5.1722 13.8820
4.1903 13.7130 5.1888 13.9754
4.2070 13.8085 5.2055 14.0708
4.2236 13.9062 5.2222 14.1685
4.2403 14.0030 5.2388 14.2654
4.2569 14.1005 5.2554 14.3628
4.2736 14.2015 5.2722 14.4638
4.2903 14.3012 5.2888 14.5636
4.3070 14.4015 5.3055 14.6639
4.3236 14.5021 5.3222 14.7644
4.3403 14.6048 5.3388 14.8672
4.3569 14.7103 5.3554 14.9727
4.3736 14.8172 5.3722 15.0796
4.3902 14.9241 5.3888 15.1865
4.4070 15.0363 5.4055 15.2987
4.4236 15.1457 5.4222 15.4081
4.4403 15.2571 5.4389 15.5195
4.4569 15.3668 5.4555 15.6292
4.4736 15.4751 5.4722 15.7375
4.4902 15.5866 5.4888 15.8489
4.5069 15.6983 5.5055 15.9606
4.5236 15.8095 5.5221 16.0719
4.5403 15.9256 5.5388 16.1879
4.5570 16.0390 5.5555 16.3013
4.5736 16.1525 5.5722 16.4149
4.5903 16.2678 5.5888 16.5302
4.6070 16.3826 5.6055 16.6449
4.6236 16.4983 5.6221 16.7607
4.6402 16.6141 5.6388 16.8765
4.6569 16.7287 5.6555 16.9911
4.6736 16.8471 5.6722 17.1095
4.6903 16.9658 5.6889 17.2282
4.7069 17.0861 5.7055 17.3485
4.7236 17.2088 5.7222 17.4712
4.7403 17.3281 5.7388 17.5904
4.7569 17.4487 5.7555 17.7110
4.7736 17.5707 5.7721 17.8331
4.7902 17.6954 5.7888 17.9578
4.8069 17.8244 5.8055 18.0868
4.8236 17.9541 5.8222 18.2165
4.8403 18.0823 5.8388 18.3447
4.8569 18.2150 5.8555 18.4773
4.8736 18.3491 5.8722 18.6115
4.8902 18.4881 5.8888 18.7505
4.9069 18.6269 5.9055 18.8892
4.9236 18.7728 5.9222 19.0352
4.9403 18.9230 5.9388 19.1854
4.9570 19.0740 5.9555 19.3364
4.9736 19.2234 5.9722 19.4858
4.9903 19.3762 5.9888 19.6386
5.0069 19.5270 6.0055 19.7894
5.0236 19.6785 6.0221 19.9409
5.0402 19.8334 6.0388 20.0958
5.0569 19.9887 6.0555 20.2511
5.0736 20.1438 6.0721 20.4062
5.0903 20.3049 6.0888 20.5673
5.1069 20.4631 6.1055 20.7255
5.1236 20.6244 6.1222 20.8868
5.1403 20.7838 6.1388 21.0461
5.1569 20.9425 6.1555 21.2048
5.1735 21.1037 6.1721 21.3660
5.1902 21.2676 6.1888 21.5299
5.2069 21.4306 6.2055 21.6930
5.2236 21.5987 6.2222 21.8610
5.2403 21.7625 6.2388 22.0249
5.2570 21.9309 6.2555 22.1932
5.2736 22.1005 6.2721 22.3629
5.2903 22.2698 6.2888 22.5321
5.3069 22.4402 6.3054 22.7026
5.3236 22.6146 6.3222 22.8770
5.3402 22.7873 6.3388 23.0497
5.3569 22.9615 6.3554 23.2238
5.3736 23.1342 6.3721 23.3966
5.3903 23.3116 6.3888 23.5740
5.4069 23.4899 6.4055 23.7523
5.4236 23.6645 6.4222 23.9269
5.4402 23.8433 6.4388 24.1057
5.4569 24.0248 6.4555 24.2872
5.4736 24.2046 6.4721 24.4670
5.4903 24.3929 6.4888 24.6552
5.5069 24.5762 6.5055 24.8385
5.5236 24.7606 6.5222 25.0230
5.5402 24.9451 6.5388 25.2075
5.5570 25.1272 6.5555 25.3896
5.5735 25.3085 6.5721 25.5709
5.5902 25.4920 6.5888 25.7544
5.6069 25.6743 6.6055 25.9367
5.6236 25.8566 6.6222 26.1190
5.6403 26.0370 6.6388 26.2993
5.6570 26.2149 6.6555 26.4773
5.6736 26.3920 6.6721 26.6544
5.6902 26.5720 6.6888 26.8344
5.7068 26.7518 6.7054 27.0141
5.7236 26.9401 6.7222 27.2025
5.7403 27.1250 6.7388 27.3874
5.7570 27.3110 6.7555 27.5733
5.7736 27.4937 6.7722 27.7561
5.7903 27.6756 6.7888 27.9379
5.8069 27.8558 6.8054 28.1182
5.8236 28.0381 6.8222 28.3005
5.8402 28.2202 6.8388 28.4826
5.8569 28.4083 6.8555 28.6706
5.8736 28.5915 6.8721 28.8538
5.8903 28.7782 6.8888 29.0405
5.9069 28.9625 6.9055 29.2249
5.9236 29.1448 6.9222 29.4072
5.9402 29.3303 6.9388 29.5927
5.9570 29.5170 6.9555 29.7794
5.9736 29.6963 6.9721 29.9587
5.9902 29.8817 6.9888 30.1441
6.0069 30.0686 7.0055 30.3309
6.0236 30.2558 7.0222 30.5182
6.0402 30.4411 7.0388 30.7034
6.0570 30.6258 7.0555 30.8881
6.0736 30.8101 7.0721 31.0725
6.0903 31.0009 7.0888 31.2633
6.1069 31.1865 7.1054 31.4489
6.1236 31.3763 7.1222 31.6387
6.1402 31.5651 7.1388 31.8275
6.1569 31.7555 7.1555 32.0178
6.1736 31.9451 7.1722 32.2074
6.1903 32.1364 7.1889 32.3987
6.2069 32.3245 7.2054 32.5868
6.2236 32.5193 7.2222 32.7817
6.2403 32.7100 7.2388 32.9724
6.2569 32.9004 7.2554 33.1628
6.2736 33.0916 7.2721 33.3540
6.2903 33.2867 7.2888 33.5491
6.3069 33.4798 7.3055 33.7421
6.3236 33.6750 7.3222 33.9373
6.3402 33.8636 7.3388 34.1260
6.3569 34.0560 7.3555 34.3183
6.3736 34.2474 7.3721 34.5098
6.3902 34.4438 7.3888 34.7062
6.4069 34.6429 7.4054 34.9053
6.4236 34.8410 7.4222 35.1033
6.4403 35.0364 7.4388 35.2988
6.4570 35.2339 7.4555 35.4962
6.4735 35.4264 7.4721 35.6887
6.4903 35.6272 7.4888 35.8896
6.5069 35.8234 7.5055 36.0858
6.5236 36.0195 7.5222 36.2819
6.5402 36.2124 7.5388 36.4748
6.5570 36.4074 7.5555 36.6698
6.5736 36.6042 7.5722 36.8665
6.5903 36.8050 7.5889 37.0674
6.6069 37.0029 7.6055 37.2653
6.6236 37.2063 7.6222 37.4686
6.6403 37.4038 7.6388 37.6661
6.6569 37.6026 7.6554 37.8650
6.6735 37.8054 7.6721 38.0678
6.6903 38.0130 7.6889 38.2753
6.7070 38.2174 7.7055 38.4798
6.7236 38.4231 7.7222 38.6855
6.7403 38.6255 7.7388 38.8879
6.7569 38.8288 7.7555 39.0912
6.7736 39.0354 7.7721 39.2977
6.7902 39.2381 7.7888 39.5005
6.8069 39.4456 7.8054 39.7079
6.8236 39.6526 7.8222 39.9150
6.8403 39.8617 7.8388 40.1240
6.8569 40.0742 7.8555 40.3366
6.8736 40.2866 7.8722 40.5490
6.8903 40.4987 7.8888 40.7610
6.9069 40.7095 7.9055 40.9719
6.9236 40.9157 7.9221 41.1781
6.9402 41.1273 7.9388 41.3897
6.9570 41.3440 7.9555 41.6064
6.9736 41.5549 7.9722 41.8173
6.9902 41.7674 7.9888 42.0298
7.0069 41.9827 8.0055 42.2450
7.0236 42.1995 8.0222 42.4618
7.0402 42.4177 8.0388 42.6800
7.0569 42.6330 8.0555 42.8954
7.0736 42.8511 8.0721 43.1134
7.0903 43.0741 8.0888 43.3365
7.1070 43.2945 8.1055 43.5568
7.1236 43.5174 8.1222 43.7797
7.1403 43.7403 8.1388 44.0027
7.1569 43.9621 8.1555 44.2245
7.1736 44.1856 8.1721 44.4480
7.1902 44.4053 8.1888 44.6677
7.2069 44.6293 8.2054 44.8917
7.2236 44.8612 8.2222 45.1236
7.2403 45.0917 8.2388 45.3540
7.2569 45.3257 8.2555 45.5880
7.2736 45.5617 8.2722 45.8241
7.2903 45.7966 8.2889 46.0590
7.3069 46.0299 8.3055 46.2923
7.3236 46.2641 8.3222 46.5264
7.3402 46.4948 8.3388 46.7572
7.3569 46.7302 8.3555 46.9926
7.3736 46.9636 8.3722 47.2260
7.3902 47.1962 8.3888 47.4586
7.4069 47.4368 8.4055 47.6991
7.4236 47.6744 8.4222 47.9368
7.4402 47.9178 8.4388 48.1802
7.4569 48.1657 8.4555 48.4281
7.4736 48.4130 8.4721 48.6754
7.4901 48.6634 8.4886 48.9258
7.5068 48.9138 8.5054 49.1762
7.5235 49.1596 8.5220 49.4220
7.5401 49.3970 8.5387 49.6594
7.5568 49.6380 8.5553 49.9003
7.5734 49.8816 8.5720 50.1439
7.5900 50.1292 8.5886 50.3916
7.6066 50.3794 8.6051 50.6418
7.6228 50.6297 8.6214 50.8921
7.6390 50.8801 8.6376 51.1424
7.6554 51.1301 8.6539 51.3925
7.6716 51.3804 8.6702 51.6428
7.6878 51.6305 8.6863 51.8928
7.7038 51.8805 8.7023 52.1429
7.7196 52.1306 8.7182 52.3929
7.7353 52.3807 8.7338 52.6431
7.7512 52.6309 8.7497 52.8933
7.7670 52.8813 8.7655 53.1437
7.7826 53.1316 8.7812 53.3940
7.7979 53.3817 8.7965 53.6441
7.8134 53.6318 8.8120 53.8942
7.8283 53.8823 8.8269 54.1446
7.8429 54.1327 8.8415 54.3950
7.8571 54.3832 8.8557 54.6455
7.8712 54.6334 8.8698 54.8958
7.8850 54.8837 8.8836 55.1460
7.8988 55.1338 8.8974 55.3962
7.9124 55.3839 8.9109 55.6463
7.9260 55.6340 8.9245 55.8964
7.9394 55.8843 8.9379 56.1466
7.9527 56.1347 8.9513 56.3971
7.9662 56.3850 8.9648 56.6474
7.9795 56.6352 8.9781 56.8976
7.9931 56.8853 8.9916 57.1477
8.0065 57.1358 9.0051 57.3982
8.0202 57.3865 9.0188 57.6488
8.0336 57.6367 9.0322 57.8991
8.0470 57.8871 9.0455 58.1495
8.0604 58.1377 9.0590 58.4000
8.0738 58.3881 9.0723 58.6505
8.0868 58.6382 9.0854 58.9005
8.1001 58.8885 9.0987 59.1509
8.1132 59.1385 9.1118 59.4009
8.1262 59.3889 9.1247 59.6513
8.1390 59.6393 9.1376 59.9017
8.1520 59.8894 9.1506 60.1518
8.1648 60.1395 9.1633 60.4018
8.1778 60.3895 9.1764 60.6518
8.1909 60.6398 9.1894 60.9022
8.2039 60.8904 9.2025 61.1528
8.2168 61.1407 9.2154 61.4031
8.2296 61.3912 9.2282 61.6536
8.2423 61.6417 9.2409 61.9041
8.2549 61.8920 9.2534 62.1544
8.2673 62.1422 9.2658 62.4045
8.2798 62.3927 9.2784 62.6551
8.2922 62.6430 9.2907 62.9054
8.3047 62.8931 9.3032 63.1555
8.3172 63.1437 9.3158 63.4061
8.3297 63.3938 9.3282 63.6562
8.3420 63.6439 9.3406 63.9063
8.3548 63.8943 9.3534 64.1567
8.3673 64.1448 9.3659 64.4072
8.3800 64.3948 9.3786 64.6572
8.3925 64.6455 9.3911 64.9079
8.4046 64.8958 9.4032 65.1581
8.4168 65.1460 9.4153 65.4083
8.4288 65.3961 9.4274 65.6585
8.4409 65.6462 9.4395 65.9086
8.4531 65.8968 9.4517 66.1592
8.4654 66.1470 9.4639 66.4093
8.4777 66.3976 9.4762 66.6600
8.4900 66.6478 9.4885 66.9101
8.5022 66.8978 9.5008 67.1602
8.5146 67.1484 9.5131 67.4107
8.5267 67.3984 9.5252 67.6608
8.5387 67.6488 9.5373 67.9112
8.5509 67.8994 9.5495 68.1618
8.5630 68.1496 9.5616 68.4119
8.5750 68.3996 9.5736 68.6620
8.5872 68.6498 9.5858 68.9122
8.5990 68.9003 9.5976 69.1627
8.6112 69.1509 9.6097 69.4133
8.6230 69.4015 9.6216 69.6638
8.6349 69.6519 9.6335 69.9142
8.6470 69.9025 9.6456 70.1649
8.6588 70.1527 9.6574 70.4151
8.6708 70.4030 9.6694 70.6654
8.6829 70.6531 9.6814 70.9155
8.6949 70.9038 9.6934 71.1661
8.7071 71.1539 9.7056 71.4163
8.7192 71.4046 9.7177 71.6670
8.7312 71.6548 9.7297 71.9172
8.7432 71.9048 9.7418 72.1672
8.7552 72.1551 9.7538 72.4174
8.7672 72.4055 9.7657 72.6678
8.7789 72.6561 9.7775 72.9185
8.7907 72.9066 9.7893 73.1690
8.8022 73.1571 9.8008 73.4195
8.8138 73.4076 9.8124 73.6700
8.8254 73.6578 9.8239 73.9202
8.8373 73.9081 9.8358 74.1704
8.8493 74.1585 9.8478 74.4208
8.8612 74.4086 9.8598 74.6710
8.8733 74.6593 9.8719 74.9217
8.8852 74.9093 9.8838 75.1717
8.8973 75.1595 9.8959 75.4219
8.9092 75.4097 9.9078 75.6720
8.9212 75.6600 9.9198 75.9223
8.9329 75.9100 9.9314 76.1724
8.9446 76.1607 9.9432 76.4231
8.9562 76.4109 9.9547 76.6733
8.9680 76.6613 9.9665 76.9236
8.9799 76.9114 9.9784 77.1738
8.9920 77.1619 9.9905 77.4243
9.0038 77.4119 10.0024 77.6743
9.0159 77.6622 10.0144 77.9245
9.0278 77.9128 10.0264 78.1752
9.0397 78.1630 10.0382 78.4254
9.0518 78.4134 10.0504 78.6758
9.0636 78.6636 10.0622 78.9260
9.0755 78.9138 10.0741 79.1762
9.0869 79.1642 10.0854 79.4266
9.0986 79.4149 10.0972 79.6773
9.1102 79.6653 10.1087 79.9277
9.1218 79.9154 10.1203 80.1778
9.1333 80.1660 10.1319 80.4283
9.1451 80.4160 10.1437 80.6784
9.1570 80.6667 10.1556 80.9291
9.1688 80.9172 10.1674 81.1796
9.1806 81.1678 10.1792 81.4301
9.1890 81.3401 10.1876 81.6024
