"Disp (mm)" "Load (kN)" "d (raw)" "f (raw)"
0.0000 0 1.25 0.07
0.0141 0.0207 1.2668 0.0879
0.0331 0.0569 1.2858 0.1241
0.0499 0.0841 1.3026 0.1513
0.0665 0.1109 1.3192 0.1781
0.0833 0.1371 1.3360 0.2044
0.0998 0.1628 1.3525 0.2300
0.1165 0.1849 1.3692 0.2521
0.1332 0.2059 1.3858 0.2731
0.1498 0.2246 1.4024 0.2918
0.1668 0.2426 1.4194 0.3098
0.1833 0.2429 1.4360 0.3101
0.1998 0.2428 1.4525 0.3100
0.2166 0.2432 1.4693 0.3104
0.2332 0.2435 1.4858 0.3107
0.2498 0.2437 1.5025 0.3109
0.2667 0.2439 1.5193 0.3111
0.2830 0.2441 1.5356 0.3113
0.2998 0.2451 1.5525 0.3123
0.3168 0.2442 1.5694 0.3114
0.3333 0.2448 1.5859 0.3120
0.3498 0.2452 1.6025 0.3124
0.3666 0.2450 1.6192 0.3122
0.3832 0.2445 1.6358 0.3117
0.4000 0.2455 1.6526 0.3127
0.4165 0.2451 1.6691 0.3123
0.4333 0.2459 1.6860 0.3131
0.4501 0.2495 1.7027 0.3167
0.4664 0.2615 1.7190 0.3287
0.4831 0.2859 1.7358 0.3531
0.4999 0.3110 1.7526 0.3782
0.5165 0.3353 1.7691 0.4025
0.5333 0.3612 1.7859 0.4284
0.5498 0.3869 1.8025 0.4541
0.5664 0.4120 1.8190 0.4792
0.5834 0.4396 1.8360 0.5068
0.5998 0.4652 1.8524 0.5324
0.6166 0.4917 1.8692 0.5589
0.6333 0.5194 1.8860 0.5866
0.6497 0.5453 1.9023 0.6125
0.6667 0.5719 1.9193 0.6391
0.6832 0.5987 1.9358 0.6659
0.6995 0.6246 1.9522 0.6918
0.7166 0.6513 1.9693 0.7185
0.7331 0.6764 1.9857 0.7436
0.7499 0.7031 2.0025 0.7703
0.7666 0.7302 2.0192 0.7975
0.7830 0.7557 2.0356 0.8229
0.7998 0.7847 2.0525 0.8519
0.8167 0.8116 2.0693 0.8789
0.8332 0.8399 2.0859 0.9071
0.8498 0.8681 2.1025 0.9353
0.8662 0.8951 2.1189 0.9623
0.8830 0.9235 2.1356 0.9907
0.9001 0.9527 2.1528 1.0199
0.9167 0.9810 2.1693 1.0482
0.9334 1.0099 2.1860 1.0771
0.9500 1.0390 2.2027 1.1062
0.9664 1.0671 2.2191 1.1343
0.9834 1.0979 2.2361 1.1652
1.0000 1.1258 2.2526 1.1930
1.0167 1.1549 2.2693 1.2221
1.0336 1.1853 2.2862 1.2526
1.0498 1.2123 2.3025 1.2795
1.0666 1.2419 2.3192 1.3091
1.0836 1.2718 2.3362 1.3390
1.0999 1.2985 2.3525 1.3658
1.1166 1.3289 2.3692 1.3961
1.1334 1.3596 2.3860 1.4268
1.1498 1.3877 2.4024 1.4549
1.1667 1.4179 2.4194 1.4851
1.1834 1.4468 2.4360 1.5141
1.1999 1.4759 2.4525 1.5431
1.2167 1.5058 2.4694 1.5731
1.2331 1.5338 2.4858 1.6011
1.2499 1.5634 2.5026 1.6306
1.2670 1.5939 2.5196 1.6612
1.2833 1.6233 2.5360 1.6905
1.2999 1.6533 2.5526 1.7205
1.3168 1.6835 2.5694 1.7507
1.3332 1.7131 2.5858 1.7803
1.3500 1.7430 2.6026 1.8102
1.3667 1.7721 2.6193 1.8394
1.3833 1.8031 2.6359 1.8703
1.4002 1.8332 2.6528 1.9004
1.4166 1.8616 2.6693 1.9288
1.4335 1.8925 2.6861 1.9598
1.4503 1.9244 2.7030 1.9917
1.4664 1.9538 2.7191 2.0210
1.4833 1.9864 2.7360 2.0536
1.5001 2.0183 2.7528 2.0855
1.5164 2.0485 2.7691 2.1157
1.5333 2.0805 2.7860 2.1478
1.5499 2.1119 2.8026 2.1791
1.5666 2.1433 2.8192 2.2105
1.5836 2.1763 2.8362 2.2435
1.6000 2.2068 2.8526 2.2740
1.6167 2.2396 2.8694 2.3068
1.6337 2.2733 2.8863 2.3405
1.6500 2.3038 2.9026 2.3711
1.6668 2.3378 2.9195 2.4050
1.6834 2.3697 2.9360 2.4369
1.6999 2.4011 2.9525 2.4683
1.7168 2.4350 2.9695 2.5022
1.7335 2.4657 2.9861 2.5329
1.7502 2.4978 3.0028 2.5650
1.7669 2.5304 3.0196 2.5976
1.7832 2.5614 3.0359 2.6286
1.8001 2.5953 3.0527 2.6625
1.8166 2.6272 3.0692 2.6944
1.8332 2.6606 3.0859 2.7278
1.8501 2.6929 3.1027 2.7601
1.8667 2.7237 3.1193 2.7909
1.8834 2.7565 3.1360 2.8237
1.9002 2.7891 3.1528 2.8563
1.9166 2.8201 3.1692 2.8873
1.9335 2.8547 3.1861 2.9219
1.9502 2.8863 3.2028 2.9535
1.9666 2.9175 3.2192 2.9847
1.9833 2.9500 3.2360 3.0172
2.0000 2.9829 3.2526 3.0502
2.0166 3.0138 3.2693 3.0810
2.0334 3.0465 3.2860 3.1138
2.0498 3.0742 3.3024 3.1414
2.0664 3.1004 3.3191 3.1676
2.0832 3.1278 3.3359 3.1950
2.0999 3.1540 3.3526 3.2212
2.1166 3.1824 3.3693 3.2496
2.1335 3.2129 3.3861 3.2801
2.1499 3.2418 3.4025 3.3090
2.1667 3.2737 3.4194 3.3409
2.1832 3.3026 3.4359 3.3699
2.1999 3.3343 3.4526 3.4015
2.2167 3.3651 3.4693 3.4323
2.2331 3.3936 3.4858 3.4608
2.2498 3.4243 3.5024 3.4916
2.2669 3.4574 3.5195 3.5246
2.2834 3.4878 3.5360 3.5550
2.3002 3.5215 3.5528 3.5888
2.3168 3.5528 3.5694 3.6200
2.3333 3.5836 3.5860 3.6508
2.3502 3.6158 3.6028 3.6831
2.3668 3.6469 3.6194 3.7141
2.3832 3.6769 3.6358 3.7441
2.4001 3.7080 3.6528 3.7753
2.4166 3.7379 3.6692 3.8051
2.4332 3.7700 3.6859 3.8372
2.4500 3.8005 3.7027 3.8677
2.4664 3.8325 3.7190 3.8997
2.4832 3.8674 3.7358 3.9346
2.5001 3.9020 3.7527 3.9692
2.5164 3.9358 3.7690 4.0031
2.5334 3.9725 3.7860 4.0397
2.5499 4.0060 3.8026 4.0732
2.5666 4.0409 3.8192 4.1081
2.5835 4.0764 3.8361 4.1436
2.5999 4.1094 3.8525 4.1766
2.6163 4.1444 3.8690 4.2116
2.6331 4.1804 3.8857 4.2476
2.6494 4.2150 3.9021 4.2822
2.6664 4.2520 3.9190 4.3193
2.6833 4.2884 3.9360 4.3556
2.6998 4.3256 3.9524 4.3928
2.7166 4.3634 3.9693 4.4306
2.7332 4.3999 3.9858 4.4671
2.7500 4.4386 4.0026 4.5058
2.7670 4.4775 4.0196 4.5447
2.7832 4.5136 4.0359 4.5808
2.7998 4.5522 4.0524 4.6194
2.8166 4.5911 4.0692 4.6583
2.8330 4.6281 4.0856 4.6953
2.8502 4.6692 4.1028 4.7364
2.8667 4.7061 4.1194 4.7733
2.8833 4.7433 4.1359 4.8105
2.9001 4.7825 4.1528 4.8497
2.9165 4.8184 4.1692 4.8856
2.9332 4.8556 4.1859 4.9228
2.9500 4.8944 4.2027 4.9616
2.9666 4.9311 4.2192 4.9983
2.9834 4.9702 4.2361 5.0374
3.0000 5.0072 4.2527 5.0744
3.0048 5.0178 4.2574 5.0850
   
"Disp (mm)" "Load (kN)" "d (raw)" "f (raw)"
0.0000 0 0.0000 0.2487
0.0164 0.0267 0.0165 0.2754
0.0332 0.0565 0.0333 0.3052
0.0500 0.0584 0.0500 0.3071
0.0667 0.0608 0.0667 0.3096
0.0833 0.0605 0.0834 0.3092
0.1000 0.0611 0.1000 0.3098
0.1166 0.0607 0.1167 0.3094
0.1332 0.0614 0.1333 0.3101
0.1500 0.0618 0.1500 0.3105
0.1666 0.0623 0.1666 0.3110
0.1833 0.0624 0.1834 0.3111
0.2000 0.0628 0.2000 0.3115
0.2166 0.0627 0.2167 0.3114
0.2332 0.0622 0.2333 0.3109
0.2500 0.0628 0.2500 0.3115
0.2666 0.0622 0.2667 0.3109
0.2833 0.0631 0.2833 0.3118
0.2999 0.0627 0.3000 0.3114
0.3166 0.0660 0.3167 0.3148
0.3333 0.0924 0.3334 0.3412
0.3500 0.1224 0.3501 0.3711
0.3666 0.1536 0.3667 0.4023
0.3833 0.1824 0.3834 0.4311
0.3999 0.2114 0.4000 0.4601
0.4166 0.2400 0.4167 0.4888
0.4332 0.2686 0.4333 0.5173
0.4500 0.2967 0.4500 0.5454
0.4667 0.3264 0.4667 0.5751
0.4834 0.3550 0.4834 0.6038
0.5000 0.3826 0.5000 0.6313
0.5166 0.4111 0.5167 0.6598
0.5333 0.4399 0.5333 0.6886
0.5500 0.4684 0.5500 0.7171
0.5666 0.4982 0.5666 0.7469
0.5834 0.5275 0.5834 0.7762
0.6000 0.5578 0.6000 0.8065
0.6166 0.5884 0.6167 0.8371
0.6333 0.6185 0.6334 0.8672
0.6500 0.6488 0.6500 0.8975
0.6666 0.6796 0.6667 0.9284
0.6833 0.7102 0.6833 0.9589
0.7000 0.7413 0.7000 0.9900
0.7166 0.7729 0.7167 1.0216
0.7333 0.8036 0.7334 1.0523
0.7500 0.8352 0.7500 1.0839
0.7667 0.8671 0.7667 1.1158
0.7833 0.8985 0.7834 1.1472
0.8000 0.9304 0.8000 1.1792
0.8166 0.9620 0.8166 1.2107
0.8333 0.9933 0.8333 1.2420
0.8500 1.0254 0.8500 1.2742
0.8667 1.0562 0.8667 1.3050
0.8833 1.0885 0.8834 1.3372
0.9000 1.1207 0.9000 1.3694
0.9166 1.1533 0.9167 1.4020
0.9333 1.1859 0.9333 1.4347
0.9500 1.2173 0.9500 1.4661
0.9666 1.2499 0.9667 1.4986
0.9833 1.2824 0.9834 1.5311
1.0000 1.3132 1.0000 1.5619
1.0166 1.3458 1.0167 1.5946
1.0334 1.3784 1.0334 1.6271
1.0500 1.4102 1.0500 1.6589
1.0666 1.4437 1.0667 1.6925
1.0833 1.4767 1.0834 1.7255
1.1000 1.5104 1.1000 1.7592
1.1166 1.5437 1.1167 1.7925
1.1334 1.5766 1.1334 1.8253
1.1500 1.6097 1.1501 1.8584
1.1667 1.6420 1.1668 1.8908
1.1833 1.6749 1.1833 1.9236
1.2000 1.7092 1.2000 1.9580
1.2166 1.7424 1.2166 1.9912
1.2333 1.7772 1.2334 2.0260
1.2500 1.8121 1.2500 2.0608
1.2667 1.8456 1.2667 2.0944
1.2833 1.8801 1.2834 2.1288
1.3000 1.9149 1.3001 2.1636
1.3166 1.9491 1.3166 2.1979
1.3333 1.9838 1.3333 2.2325
1.3500 2.0184 1.3500 2.2672
1.3666 2.0529 1.3667 2.3017
1.3833 2.0882 1.3833 2.3369
1.4000 2.1244 1.4001 2.3731
1.4166 2.1595 1.4167 2.4082
1.4334 2.1954 1.4334 2.4441
1.4500 2.2305 1.4500 2.4792
1.4666 2.2656 1.4666 2.5144
1.4833 2.3008 1.4833 2.5495
1.5000 2.3355 1.5000 2.5842
1.5166 2.3716 1.5167 2.6204
1.5333 2.4074 1.5334 2.6562
1.5500 2.4421 1.5500 2.6909
1.5667 2.4779 1.5667 2.7266
1.5833 2.5136 1.5834 2.7623
1.6000 2.5487 1.6000 2.7974
1.6166 2.5847 1.6166 2.8334
1.6333 2.6204 1.6333 2.8691
1.6499 2.6539 1.6500 2.9026
1.6667 2.6890 1.6667 2.9377
1.6833 2.7223 1.6834 2.9710
1.7000 2.7562 1.7000 3.0049
1.7166 2.7916 1.7167 3.0403
1.7334 2.8266 1.7334 3.0753
1.7500 2.8624 1.7500 3.1111
1.7666 2.8969 1.7667 3.1456
1.7833 2.9324 1.7833 3.1811
1.8000 2.9674 1.8001 3.2161
1.8167 3.0017 1.8167 3.2504
1.8333 3.0366 1.8334 3.2853
1.8500 3.0702 1.8500 3.3189
1.8666 3.1038 1.8667 3.3525
1.8833 3.1386 1.8833 3.3873
1.9000 3.1736 1.9000 3.4223
1.9166 3.2090 1.9166 3.4577
1.9334 3.2444 1.9334 3.4932
1.9500 3.2808 1.9500 3.5295
1.9667 3.3192 1.9667 3.5679
1.9834 3.3568 1.9834 3.6056
2.0000 3.3943 2.0000 3.6431
2.0166 3.4319 2.0166 3.6807
2.0333 3.4692 2.0334 3.7179
2.0500 3.5077 2.0500 3.7564
2.0667 3.5461 2.0667 3.7948
2.0834 3.5852 2.0834 3.8339
2.1000 3.6249 2.1000 3.8736
2.1166 3.6635 2.1166 3.9122
2.1333 3.7028 2.1333 3.9515
2.1500 3.7408 2.1500 3.9895
2.1666 3.7788 2.1667 4.0276
2.1833 3.8168 2.1833 4.0656
2.2000 3.8575 2.2000 4.1062
2.2167 3.8988 2.2167 4.1475
2.2333 3.9410 2.2333 4.1897
2.2500 3.9842 2.2500 4.2329
2.2667 4.0265 2.2667 4.2753
2.2833 4.0692 2.2833 4.3179
2.3000 4.1118 2.3000 4.3605
2.3166 4.1533 2.3166 4.4021
2.3333 4.1969 2.3334 4.4456
2.3500 4.2383 2.3500 4.4871
2.3666 4.2805 2.3667 4.5292
2.3834 4.3227 2.3834 4.5714
2.4000 4.3647 2.4000 4.6134
2.4166 4.4070 2.4167 4.6557
2.4333 4.4497 2.4333 4.6984
2.4500 4.4913 2.4500 4.7401
2.4667 4.5340 2.4667 4.7827
2.4834 4.5749 2.4834 4.8237
2.5000 4.6148 2.5000 4.8636
2.5166 4.6555 2.5167 4.9043
2.5333 4.6950 2.5334 4.9437
2.5500 4.7372 2.5500 4.9859
2.5559 4.7513 2.5559 5.0000
2.5559 4.7514 2.5560 5.0001
2.5402 4.7113 2.5402 4.9600
2.5228 4.6277 2.5228 4.8765
2.5060 4.5349 2.5060 4.7837
2.4893 4.4484 2.4894 4.6971
2.4726 4.3657 2.4727 4.6145
2.4559 4.2863 2.4560 4.5350
2.4393 4.2096 2.4393 4.4583
2.4226 4.1341 2.4226 4.3828
2.4060 4.0611 2.4060 4.3099
2.3893 3.9906 2.3893 4.2393
2.3726 3.9202 2.3727 4.1689
2.3560 3.8523 2.3560 4.1011
2.3393 3.7871 2.3394 4.0358
2.3226 3.7190 2.3226 3.9677
2.3060 3.6543 2.3060 3.9030
2.2893 3.5914 2.2894 3.8402
2.2726 3.5306 2.2727 3.7794
2.2560 3.4721 2.2560 3.7208
2.2393 3.4146 2.2394 3.6633
2.2226 3.3584 2.2226 3.6072
2.2060 3.3036 2.2060 3.5523
2.1892 3.2482 2.1893 3.4969
2.1726 3.1956 2.1727 3.4444
2.1560 3.1429 2.1560 3.3916
2.1393 3.0922 2.1394 3.3410
2.1226 3.0414 2.1227 3.2902
2.1060 2.9923 2.1060 3.2410
2.0893 2.9440 2.0893 3.1927
2.0726 2.8989 2.0727 3.1476
2.0559 2.8538 2.0560 3.1026
2.0393 2.8101 2.0393 3.0588
2.0226 2.7671 2.0226 3.0158
2.0060 2.7235 2.0060 2.9722
1.9893 2.6817 1.9893 2.9305
1.9726 2.6397 1.9727 2.8884
1.9560 2.5981 1.9560 2.8469
1.9393 2.5564 1.9393 2.8051
1.9226 2.5154 1.9226 2.7641
1.9060 2.4754 1.9060 2.7242
1.8893 2.4362 1.8893 2.6850
1.8726 2.3977 1.8727 2.6465
1.8560 2.3598 1.8560 2.6086
1.8393 2.3219 1.8394 2.5707
1.8226 2.2847 1.8227 2.5335
1.8060 2.2482 1.8060 2.4970
1.7893 2.2112 1.7894 2.4599
1.7726 2.1749 1.7727 2.4236
1.7560 2.1395 1.7560 2.3882
1.7393 2.1047 1.7394 2.3535
1.7226 2.0694 1.7226 2.3182
1.7059 2.0346 1.7060 2.2833
1.6892 2.0003 1.6893 2.2490
1.6726 1.9667 1.6726 2.2154
1.6560 1.9331 1.6560 2.1818
1.6393 1.8998 1.6394 2.1485
1.6226 1.8657 1.6226 2.1144
1.6060 1.8326 1.6060 2.0813
1.5893 1.7997 1.5893 2.0484
1.5726 1.7679 1.5727 2.0166
1.5560 1.7359 1.5560 1.9846
1.5392 1.7036 1.5393 1.9523
1.5226 1.6719 1.5226 1.9206
1.5060 1.6398 1.5060 1.8885
1.4893 1.6089 1.4893 1.8577
1.4726 1.5769 1.4727 1.8257
1.4560 1.5458 1.4560 1.7945
1.4393 1.5152 1.4394 1.7639
1.4226 1.4836 1.4226 1.7323
1.4059 1.4532 1.4060 1.7019
1.3893 1.4238 1.3893 1.6725
1.3726 1.3936 1.3726 1.6423
1.3559 1.3638 1.3560 1.6125
1.3393 1.3334 1.3393 1.5821
1.3226 1.3030 1.3226 1.5518
1.3060 1.2730 1.3060 1.5217
1.2893 1.2434 1.2893 1.4922
1.2726 1.2141 1.2727 1.4629
1.2560 1.1856 1.2560 1.4344
1.2393 1.1572 1.2394 1.4060
1.2226 1.1292 1.2226 1.3779
1.2060 1.1013 1.2060 1.3500
1.1893 1.0724 1.1894 1.3211
1.1727 1.0448 1.1727 1.2935
1.1560 1.0170 1.1560 1.2657
1.1393 0.9885 1.1393 1.2372
1.1226 0.9618 1.1226 1.2106
1.1059 0.9333 1.1060 1.1820
1.0892 0.9070 1.0893 1.1558
1.0726 0.8812 1.0727 1.1300
1.0560 0.8540 1.0560 1.1028
1.0392 0.8286 1.0393 1.0773
1.0226 0.8031 1.0226 1.0518
1.0059 0.7787 1.0060 1.0274
0.9893 0.7526 0.9894 1.0013
0.9726 0.7282 0.9726 0.9769
0.9560 0.7032 0.9560 0.9519
0.9393 0.6783 0.9393 0.9270
0.9226 0.6537 0.9227 0.9025
0.9059 0.6294 0.9060 0.8781
0.8893 0.6063 0.8894 0.8550
0.8726 0.5823 0.8726 0.8310
0.8559 0.5586 0.8560 0.8073
0.8392 0.5351 0.8393 0.7839
0.8226 0.5113 0.8227 0.7601
0.8060 0.4887 0.8060 0.7375
0.7893 0.4656 0.7894 0.7144
0.7726 0.4417 0.7726 0.6904
0.7559 0.4194 0.7560 0.6681
0.7392 0.3982 0.7393 0.6469
0.7226 0.3771 0.7226 0.6259
0.7059 0.3551 0.7060 0.6038
0.6893 0.3334 0.6893 0.5821
0.6726 0.3113 0.6726 0.5600
0.6560 0.2900 0.6560 0.5388
0.6392 0.2685 0.6393 0.5173
0.6226 0.2476 0.6227 0.4964
0.6059 0.2256 0.6060 0.4743
0.5893 0.2051 0.5893 0.4538
0.5726 0.1837 0.5726 0.4325
0.5560 0.1635 0.5560 0.4122
0.5458 0.1512 0.5458 0.4000
0.5458 0.1512 0.5458 0.3999
0.5617 0.1664 0.5618 0.4151
0.5790 0.2068 0.5791 0.4555
0.5958 0.2437 0.5958 0.4924
0.6124 0.2741 0.6125 0.5228
0.6292 0.3072 0.6292 0.5559
0.6458 0.3442 0.6458 0.5930
0.6625 0.3795 0.6625 0.6282
0.6791 0.4131 0.6792 0.6618
0.6958 0.4470 0.6958 0.6957
0.7125 0.4799 0.7125 0.7287
0.7292 0.5128 0.7292 0.7615
0.7458 0.5464 0.7459 0.7951
0.7625 0.5791 0.7626 0.8278
0.7791 0.6136 0.7792 0.8623
0.7958 0.6461 0.7958 0.8948
0.8124 0.6798 0.8125 0.9285
0.8291 0.7127 0.8292 0.9614
0.8458 0.7467 0.8458 0.9955
0.8625 0.7795 0.8626 1.0282
0.8791 0.8131 0.8792 1.0618
0.8959 0.8487 0.8959 1.0974
0.9124 0.8831 0.9125 1.1318
0.9291 0.9192 0.9292 1.1679
0.9458 0.9530 0.9458 1.2017
0.9625 0.9877 0.9625 1.2365
0.9791 1.0229 0.9792 1.2717
0.9958 1.0564 0.9959 1.3051
1.0124 1.0911 1.0125 1.3399
1.0292 1.1258 1.0292 1.3746
1.0458 1.1602 1.0458 1.4090
1.0625 1.1957 1.0625 1.4444
1.0791 1.2301 1.0792 1.4789
1.0958 1.2649 1.0958 1.5137
1.1124 1.3005 1.1125 1.5493
1.1292 1.3356 1.1292 1.5844
1.1458 1.3708 1.1459 1.6195
1.1626 1.4053 1.1626 1.6541
1.1791 1.4396 1.1792 1.6883
1.1958 1.4741 1.1958 1.7229
1.2124 1.5088 1.2125 1.7576
1.2292 1.5442 1.2292 1.7929
1.2458 1.5801 1.2458 1.8289
1.2625 1.6148 1.2626 1.8635
1.2792 1.6493 1.2792 1.8980
1.2958 1.6845 1.2959 1.9332
1.3124 1.7193 1.3125 1.9680
1.3291 1.7539 1.3292 2.0026
1.3458 1.7896 1.3458 2.0384
1.3625 1.8242 1.3625 2.0729
1.3791 1.8592 1.3792 2.1079
1.3958 1.8954 1.3959 2.1441
1.4125 1.9301 1.4125 2.1788
1.4292 1.9669 1.4292 2.2156
1.4458 2.0032 1.4458 2.2519
1.4624 2.0390 1.4625 2.2877
1.4791 2.0759 1.4792 2.3246
1.4958 2.1111 1.4958 2.3598
1.5124 2.1461 1.5124 2.3949
1.5292 2.1837 1.5292 2.4324
1.5458 2.2200 1.5458 2.4687
1.5625 2.2568 1.5626 2.5055
1.5792 2.2940 1.5792 2.5427
1.5958 2.3313 1.5958 2.5801
1.6124 2.3686 1.6125 2.6173
1.6291 2.4062 1.6292 2.6549
1.6458 2.4430 1.6458 2.6917
1.6625 2.4803 1.6626 2.7291
1.6792 2.5155 1.6792 2.7643
1.6958 2.5530 1.6958 2.8017
1.7125 2.5905 1.7125 2.8392
1.7292 2.6278 1.7292 2.8765
1.7458 2.6660 1.7459 2.9147
1.7625 2.7040 1.7625 2.9528
1.7791 2.7413 1.7792 2.9901
1.7958 2.7808 1.7959 3.0295
1.8125 2.8173 1.8126 3.0661
1.8292 2.8547 1.8292 3.1034
1.8458 2.8923 1.8459 3.1410
1.8625 2.9291 1.8625 3.1779
1.8791 2.9674 1.8792 3.2161
1.8958 3.0067 1.8958 3.2554
1.9124 3.0455 1.9125 3.2942
1.9292 3.0862 1.9292 3.3349
1.9458 3.1265 1.9459 3.3752
1.9625 3.1666 1.9626 3.4153
1.9792 3.2075 1.9792 3.4562
1.9958 3.2467 1.9959 3.4954
2.0124 3.2869 2.0125 3.5356
2.0291 3.3267 2.0292 3.5754
2.0458 3.3666 2.0458 3.6153
2.0625 3.4075 2.0626 3.6562
2.0792 3.4481 2.0792 3.6968
2.0958 3.4885 2.0958 3.7372
2.1125 3.5299 2.1125 3.7786
2.1292 3.5703 2.1292 3.8191
2.1458 3.6108 2.1458 3.8595
2.1624 3.6523 2.1625 3.9010
2.1791 3.6936 2.1792 3.9423
2.1958 3.7343 2.1959 3.9830
2.2125 3.7775 2.2126 4.0262
2.2292 3.8209 2.2292 4.0696
2.2458 3.8667 2.2459 4.1154
2.2625 3.9110 2.2626 4.1597
2.2791 3.9549 2.2792 4.2037
2.2958 3.9997 2.2958 4.2484
2.3124 4.0430 2.3125 4.2917
2.3292 4.0868 2.3292 4.3355
2.3459 4.1299 2.3459 4.3786
2.3625 4.1730 2.3625 4.4217
2.3792 4.2165 2.3792 4.4653
2.3958 4.2596 2.3959 4.5083
2.4125 4.3038 2.4125 4.5525
2.4291 4.3471 2.4292 4.5959
2.4458 4.3905 2.4459 4.6392
2.4625 4.4343 2.4625 4.6830
2.4792 4.4780 2.4792 4.7267
2.4958 4.5198 2.4958 4.7685
2.5125 4.5614 2.5125 4.8102
2.5292 4.6036 2.5292 4.8523
2.5458 4.6460 2.5458 4.8947
2.5624 4.6887 2.5625 4.9375
2.5792 4.7296 2.5792 4.9783
2.5880 4.7513 2.5880 5.0001
2.5880 4.7514 2.5880 5.0001
2.5723 4.7107 2.5723 4.9594
2.5548 4.6194 2.5549 4.8682
2.5381 4.5293 2.5381 4.7780
2.5214 4.4428 2.5214 4.6916
2.5047 4.3599 2.5048 4.6087
2.4881 4.2811 2.4881 4.5298
2.4714 4.2055 2.4715 4.4542
2.4547 4.1309 2.4548 4.3796
2.4380 4.0581 2.4381 4.3068
2.4214 3.9856 2.4214 4.2343
2.4048 3.9157 2.4048 4.1644
2.3880 3.8467 2.3881 4.0955
2.3714 3.7795 2.3714 4.0283
2.3547 3.7141 2.3548 3.9628
2.3381 3.6507 2.3381 3.8994
2.3214 3.5858 2.3214 3.8345
2.3047 3.5235 2.3048 3.7722
2.2881 3.4645 2.2881 3.7133
2.2714 3.4064 2.2715 3.6551
2.2547 3.3507 2.2548 3.5994
2.2381 3.2948 2.2381 3.5435
2.2214 3.2407 2.2214 3.4894
2.2047 3.1888 2.2047 3.4375
2.1880 3.1368 2.1881 3.3855
2.1714 3.0878 2.1714 3.3366
2.1547 3.0397 2.1548 3.2884
2.1381 2.9920 2.1381 3.2408
2.1214 2.9460 2.1214 3.1948
2.1048 2.9000 2.1048 3.1487
2.0880 2.8546 2.0881 3.1033
2.0714 2.8119 2.0714 3.0606
2.0547 2.7672 2.0547 3.0159
2.0380 2.7240 2.0381 2.9728
2.0214 2.6821 2.0214 2.9308
2.0047 2.6398 2.0048 2.8886
1.9880 2.5983 1.9881 2.8471
1.9714 2.5568 1.9714 2.8055
1.9547 2.5150 1.9548 2.7637
1.9380 2.4748 1.9381 2.7235
1.9214 2.4342 1.9214 2.6830
1.9048 2.3953 1.9048 2.6440
1.8880 2.3569 1.8881 2.6057
1.8714 2.3187 1.8714 2.5675
1.8547 2.2809 1.8548 2.5297
1.8381 2.2431 1.8381 2.4919
1.8214 2.2068 1.8214 2.4555
1.8048 2.1701 1.8048 2.4189
1.7880 2.1334 1.7881 2.3822
1.7714 2.0972 1.7714 2.3459
1.7547 2.0629 1.7548 2.3117
1.7381 2.0281 1.7381 2.2769
1.7214 1.9935 1.7214 2.2422
1.7047 1.9587 1.7048 2.2075
1.6880 1.9236 1.6880 2.1724
1.6714 1.8906 1.6714 2.1393
1.6548 1.8571 1.6548 2.1058
1.6381 1.8243 1.6381 2.0730
1.6214 1.7908 1.6214 2.0396
1.6048 1.7581 1.6048 2.0068
1.5880 1.7262 1.5881 1.9750
1.5714 1.6942 1.5714 1.9429
1.5547 1.6626 1.5548 1.9113
1.5380 1.6312 1.5381 1.8799
1.5214 1.5990 1.5214 1.8477
1.5047 1.5674 1.5047 1.8162
1.4880 1.5360 1.4881 1.7847
1.4714 1.5046 1.4715 1.7533
1.4547 1.4733 1.4548 1.7220
1.4381 1.4427 1.4381 1.6915
1.4214 1.4117 1.4214 1.6604
1.4047 1.3821 1.4047 1.6308
1.3880 1.3514 1.3881 1.6002
1.3714 1.3218 1.3714 1.5706
1.3547 1.2919 1.3547 1.5407
1.3381 1.2621 1.3381 1.5108
1.3214 1.2319 1.3214 1.4806
1.3047 1.2016 1.3048 1.4503
1.2880 1.1725 1.2881 1.4212
1.2714 1.1429 1.2714 1.3916
1.2547 1.1156 1.2548 1.3643
1.2381 1.0867 1.2381 1.3355
1.2214 1.0578 1.2214 1.3065
1.2047 1.0297 1.2048 1.2784
1.1881 1.0029 1.1881 1.2516
1.1714 0.9753 1.1714 1.2240
1.1547 0.9477 1.1548 1.1965
1.1380 0.9201 1.1381 1.1689
1.1214 0.8929 1.1214 1.1416
1.1047 0.8659 1.1047 1.1147
1.0880 0.8398 1.0881 1.0885
1.0714 0.8144 1.0714 1.0631
1.0548 0.7886 1.0548 1.0373
1.0380 0.7631 1.0381 1.0119
1.0214 0.7384 1.0214 0.9871
1.0047 0.7133 1.0047 0.9620
0.9881 0.6885 0.9881 0.9372
0.9714 0.6638 0.9714 0.9126
0.9547 0.6396 0.9548 0.8883
0.9380 0.6155 0.9381 0.8642
0.9214 0.5912 0.9214 0.8399
0.9047 0.5671 0.9047 0.8158
0.8881 0.5441 0.8881 0.7929
0.8714 0.5205 0.8714 0.7692
0.8547 0.4960 0.8547 0.7448
0.8380 0.4733 0.8380 0.7221
0.8214 0.4506 0.8214 0.6993
0.8048 0.4278 0.8048 0.6766
0.7881 0.4043 0.7881 0.6530
0.7714 0.3836 0.7714 0.6323
0.7547 0.3616 0.7548 0.6103
0.7380 0.3405 0.7381 0.5892
0.7214 0.3187 0.7214 0.5674
0.7047 0.2965 0.7047 0.5452
0.6880 0.2749 0.6881 0.5237
0.6714 0.2535 0.6714 0.5022
0.6548 0.2316 0.6548 0.4803
0.6380 0.2110 0.6381 0.4598
0.6214 0.1901 0.6214 0.4388
0.6047 0.1687 0.6047 0.4174
0.5904 0.1512 0.5904 0.4000
0.5904 0.1512 0.5904 0.3999
0.6064 0.1677 0.6064 0.4164
0.6237 0.2084 0.6237 0.4572
0.6404 0.2421 0.6404 0.4909
0.6570 0.2738 0.6571 0.5225
0.6737 0.3067 0.6737 0.5555
0.6904 0.3444 0.6904 0.5932
0.7070 0.3793 0.7071 0.6280
0.7238 0.4137 0.7238 0.6625
0.7404 0.4472 0.7404 0.6959
0.7572 0.4804 0.7572 0.7291
0.7738 0.5129 0.7738 0.7616
0.7904 0.5468 0.7904 0.7955
0.8070 0.5797 0.8071 0.8285
0.8237 0.6132 0.8238 0.8619
0.8404 0.6467 0.8404 0.8954
0.8571 0.6792 0.8572 0.9279
0.8738 0.7139 0.8738 0.9626
0.8905 0.7477 0.8905 0.9964
0.9070 0.7814 0.9071 1.0301
0.9237 0.8161 0.9238 1.0648
0.9404 0.8514 0.9404 1.1002
0.9571 0.8872 0.9571 1.1359
0.9737 0.9217 0.9738 1.1705
0.9904 0.9573 0.9905 1.2060
1.0070 0.9914 1.0071 1.2401
1.0238 1.0267 1.0238 1.2754
1.0404 1.0611 1.0405 1.3098
1.0571 1.0954 1.0571 1.3442
1.0738 1.1310 1.0738 1.3797
1.0904 1.1663 1.0904 1.4151
1.1070 1.2021 1.1071 1.4508
1.1238 1.2377 1.1238 1.4864
1.1404 1.2728 1.1405 1.5215
1.1571 1.3076 1.1572 1.5563
1.1738 1.3422 1.1738 1.5910
1.1904 1.3770 1.1904 1.6257
1.2070 1.4119 1.2071 1.6606
1.2237 1.4470 1.2238 1.6957
1.2404 1.4826 1.2404 1.7314
1.2571 1.5186 1.2572 1.7674
1.2738 1.5541 1.2738 1.8029
1.2904 1.5889 1.2905 1.8377
1.3071 1.6233 1.3071 1.8721
1.3238 1.6578 1.3238 1.9065
1.3404 1.6939 1.3404 1.9427
1.3571 1.7285 1.3571 1.9772
1.3737 1.7644 1.3738 2.0131
1.3904 1.7997 1.3905 2.0485
1.4071 1.8342 1.4071 2.0830
1.4238 1.8701 1.4238 2.1188
1.4404 1.9063 1.4405 2.1550
1.4571 1.9416 1.4571 2.1904
1.4737 1.9792 1.4738 2.2280
1.4904 2.0144 1.4904 2.2632
1.5070 2.0507 1.5071 2.2994
1.5238 2.0873 1.5238 2.3361
1.5404 2.1240 1.5405 2.3727
1.5571 2.1602 1.5571 2.4090
1.5738 2.1977 1.5738 2.4464
1.5904 2.2343 1.5904 2.4830
1.6070 2.2717 1.6071 2.5204
1.6237 2.3095 1.6238 2.5583
1.6404 2.3469 1.6404 2.5957
1.6571 2.3844 1.6571 2.6331
1.6738 2.4212 1.6738 2.6699
1.6904 2.4576 1.6904 2.7063
1.7071 2.4953 1.7071 2.7440
1.7238 2.5333 1.7238 2.7820
1.7404 2.5716 1.7405 2.8204
1.7570 2.6104 1.7571 2.8592
1.7737 2.6476 1.7738 2.8964
1.7904 2.6866 1.7905 2.9353
1.8071 2.7241 1.8072 2.9728
1.8238 2.7626 1.8238 3.0113
1.8404 2.8003 1.8405 3.0490
1.8571 2.8384 1.8571 3.0872
1.8737 2.8772 1.8738 3.1259
1.8904 2.9158 1.8904 3.1645
1.9071 2.9557 1.9071 3.2045
1.9238 2.9962 1.9238 3.2449
1.9405 3.0367 1.9405 3.2854
1.9571 3.0765 1.9571 3.3252
1.9738 3.1179 1.9738 3.3667
1.9904 3.1583 1.9905 3.4070
2.0070 3.1980 2.0071 3.4467
2.0237 3.2385 2.0238 3.4872
2.0404 3.2787 2.0405 3.5275
2.0571 3.3196 2.0571 3.5684
2.0738 3.3616 2.0738 3.6103
2.0904 3.4019 2.0904 3.6506
2.1071 3.4430 2.1072 3.6918
2.1237 3.4833 2.1238 3.7320
2.1404 3.5253 2.1404 3.7740
2.1570 3.5663 2.1571 3.8150
2.1738 3.6075 2.1738 3.8562
2.1904 3.6501 2.1904 3.8989
2.2071 3.6925 2.2072 3.9412
2.2238 3.7361 2.2238 3.9848
2.2404 3.7824 2.2405 4.0311
2.2571 3.8268 2.2572 4.0756
2.2737 3.8709 2.2738 4.1196
2.2904 3.9159 2.2904 4.1646
2.3071 3.9607 2.3071 4.2094
2.3237 4.0048 2.3238 4.2536
2.3405 4.0498 2.3405 4.2986
2.3571 4.0927 2.3571 4.3415
2.3738 4.1358 2.3738 4.3845
2.3904 4.1796 2.3905 4.4283
2.4071 4.2225 2.4071 4.4713
2.4237 4.2667 2.4238 4.5154
2.4404 4.3113 2.4405 4.5601
2.4570 4.3548 2.4571 4.6035
2.4738 4.3996 2.4738 4.6484
2.4904 4.4415 2.4904 4.6903
2.5071 4.4850 2.5071 4.7337
2.5237 4.5283 2.5238 4.7770
2.5404 4.5714 2.5405 4.8201
2.5570 4.6151 2.5571 4.8639
2.5738 4.6579 2.5738 4.9067
2.5904 4.7002 2.5904 4.9489
2.6071 4.7438 2.6071 4.9925
2.6101 4.7513 2.6101 5.0000
2.6101 4.7514 2.6102 5.0001
2.5942 4.7071 2.5943 4.9558
2.5769 4.6141 2.5770 4.8629
2.5601 4.5243 2.5601 4.7730
2.5434 4.4385 2.5434 4.6872
2.5267 4.3563 2.5267 4.6050
2.5100 4.2772 2.5101 4.5259
2.4934 4.2002 2.4934 4.4489
2.4768 4.1269 2.4768 4.3756
2.4601 4.0537 2.4601 4.3024
2.4434 3.9824 2.4434 4.2312
2.4267 3.9115 2.4268 4.1603
2.4101 3.8418 2.4101 4.0905
2.3934 3.7751 2.3934 4.0238
2.3768 3.7096 2.3768 3.9583
2.3600 3.6449 2.3601 3.8936
2.3434 3.5811 2.3434 3.8299
2.3267 3.5178 2.3268 3.7665
2.3101 3.4587 2.3101 3.7074
2.2934 3.4007 2.2934 3.6494
2.2768 3.3438 2.2768 3.5925
2.2601 3.2892 2.2601 3.5380
2.2434 3.2354 2.2434 3.4841
2.2267 3.1835 2.2268 3.4323
2.2100 3.1330 2.2100 3.3817
2.1934 3.0845 2.1934 3.3333
2.1767 3.0369 2.1768 3.2856
2.1600 2.9898 2.1601 3.2385
2.1434 2.9433 2.1434 3.1920
2.1267 2.8975 2.1268 3.1462
2.1101 2.8524 2.1101 3.1012
2.0934 2.8072 2.0934 3.0560
2.0767 2.7641 2.0768 3.0128
2.0600 2.7200 2.0601 2.9687
2.0434 2.6780 2.0434 2.9268
2.0267 2.6357 2.0267 2.8844
2.0101 2.5941 2.0102 2.8429
1.9934 2.5537 1.9934 2.8024
1.9767 2.5126 1.9768 2.7614
1.9600 2.4710 1.9601 2.7197
1.9434 2.4315 1.9434 2.6802
1.9267 2.3918 1.9268 2.6405
1.9101 2.3518 1.9101 2.6006
1.8934 2.3137 1.8934 2.5624
1.8767 2.2754 1.8768 2.5241
1.8601 2.2380 1.8601 2.4867
1.8434 2.2012 1.8434 2.4499
1.8267 2.1634 1.8268 2.4121
1.8101 2.1270 1.8101 2.3758
1.7934 2.0909 1.7934 2.3397
1.7767 2.0553 1.7767 2.3040
1.7600 2.0206 1.7601 2.2694
1.7434 1.9859 1.7434 2.2346
1.7268 1.9509 1.7268 2.1997
1.7100 1.9161 1.7101 2.1648
1.6934 1.8811 1.6934 2.1298
1.6767 1.8475 1.6767 2.0963
1.6601 1.8147 1.6601 2.0634
1.6434 1.7811 1.6434 2.0299
1.6267 1.7492 1.6268 1.9979
1.6100 1.7167 1.6101 1.9654
1.5934 1.6836 1.5934 1.9323
1.5767 1.6529 1.5767 1.9017
1.5601 1.6210 1.5601 1.8697
1.5433 1.5897 1.5434 1.8385
1.5267 1.5574 1.5268 1.8061
1.5100 1.5254 1.5100 1.7741
1.4934 1.4944 1.4934 1.7431
1.4767 1.4636 1.4768 1.7124
1.4601 1.4324 1.4601 1.6811
1.4434 1.4018 1.4434 1.6505
1.4268 1.3716 1.4268 1.6204
1.4100 1.3410 1.4101 1.5898
1.3934 1.3114 1.3934 1.5601
1.3767 1.2809 1.3768 1.5297
1.3600 1.2518 1.3601 1.5006
1.3434 1.2214 1.3434 1.4701
1.3267 1.1917 1.3268 1.4404
1.3100 1.1619 1.3101 1.4106
1.2934 1.1329 1.2935 1.3817
1.2767 1.1033 1.2768 1.3520
1.2600 1.0754 1.2601 1.3242
1.2434 1.0470 1.2434 1.2957
1.2268 1.0183 1.2268 1.2670
1.2100 0.9916 1.2101 1.2403
1.1934 0.9631 1.1934 1.2118
1.1768 0.9359 1.1768 1.1846
1.1601 0.9094 1.1601 1.1581
1.1434 0.8812 1.1434 1.1299
1.1267 0.8545 1.1268 1.1032
1.1100 0.8281 1.1101 1.0769
1.0934 0.8018 1.0934 1.0505
1.0767 0.7767 1.0767 1.0254
1.0601 0.7517 1.0601 1.0004
1.0434 0.7264 1.0434 0.9751
1.0267 0.7016 1.0268 0.9503
1.0100 0.6762 1.0100 0.9249
0.9934 0.6515 0.9934 0.9003
0.9767 0.6280 0.9768 0.8768
0.9601 0.6040 0.9601 0.8527
0.9434 0.5788 0.9434 0.8275
0.9267 0.5550 0.9268 0.8037
0.9100 0.5304 0.9101 0.7791
0.8934 0.5081 0.8934 0.7568
0.8767 0.4840 0.8767 0.7327
0.8600 0.4612 0.8600 0.7100
0.8434 0.4380 0.8434 0.6867
0.8268 0.4153 0.8268 0.6640
0.8100 0.3932 0.8101 0.6419
0.7934 0.3721 0.7934 0.6209
0.7767 0.3502 0.7768 0.5990
0.7600 0.3279 0.7601 0.5766
0.7433 0.3056 0.7434 0.5544
0.7267 0.2840 0.7267 0.5327
0.7100 0.2624 0.7101 0.5111
0.6934 0.2413 0.6934 0.4900
0.6767 0.2204 0.6767 0.4692
0.6600 0.1993 0.6601 0.4480
0.6434 0.1779 0.6434 0.4266
0.6267 0.1567 0.6268 0.4055
0.6221 0.1513 0.6221 0.4000
0.6220 0.1512 0.6221 0.3999
0.6220 0.1511 0.6220 0.3998
0.6380 0.1683 0.6380 0.4171
0.6552 0.2076 0.6553 0.4564
0.6720 0.2419 0.6720 0.4907
0.6887 0.2733 0.6888 0.5221
0.7054 0.3068 0.7054 0.5555
0.7221 0.3444 0.7221 0.5932
0.7387 0.3794 0.7387 0.6281
0.7554 0.4138 0.7555 0.6625
0.7720 0.4456 0.7721 0.6944
0.7887 0.4792 0.7887 0.7279
0.8053 0.5132 0.8054 0.7620
0.8220 0.5456 0.8221 0.7943
0.8387 0.5790 0.8387 0.8277
0.8554 0.6127 0.8554 0.8615
0.8720 0.6453 0.8721 0.8941
0.8888 0.6790 0.8888 0.9277
0.9054 0.7132 0.9054 0.9619
0.9220 0.7479 0.9220 0.9966
0.9387 0.7820 0.9387 1.0307
0.9554 0.8168 0.9554 1.0655
0.9720 0.8522 0.9721 1.1010
0.9888 0.8879 0.9888 1.1366
1.0054 0.9226 1.0054 1.1714
1.0221 0.9588 1.0221 1.2075
1.0387 0.9923 1.0388 1.2411
1.0554 1.0274 1.0554 1.2762
1.0720 1.0630 1.0721 1.3117
1.0887 1.0982 1.0888 1.3469
1.1054 1.1336 1.1054 1.3824
1.1221 1.1702 1.1221 1.4190
1.1387 1.2048 1.1388 1.4536
1.1554 1.2395 1.1555 1.4883
1.1720 1.2753 1.1721 1.5240
1.1886 1.3091 1.1887 1.5579
1.2054 1.3462 1.2054 1.5949
1.2220 1.3805 1.2221 1.6292
1.2387 1.4167 1.2387 1.6654
1.2554 1.4520 1.2555 1.7007
1.2721 1.4869 1.2721 1.7356
1.2887 1.5228 1.2888 1.7715
1.3054 1.5582 1.3054 1.8069
1.3220 1.5933 1.3221 1.8420
1.3387 1.6283 1.3387 1.8771
1.3554 1.6637 1.3554 1.9124
1.3720 1.6986 1.3720 1.9473
1.3888 1.7349 1.3888 1.9836
1.4054 1.7695 1.4054 2.0182
1.4221 1.8052 1.4221 2.0539
1.4387 1.8411 1.4388 2.0899
1.4554 1.8758 1.4554 2.1246
1.4720 1.9126 1.4720 2.1613
1.4887 1.9483 1.4887 2.1970
1.5053 1.9855 1.5054 2.2343
1.5221 2.0219 1.5221 2.2707
1.5387 2.0576 1.5388 2.3064
1.5554 2.0947 1.5554 2.3434
1.5720 2.1322 1.5721 2.3809
1.5887 2.1683 1.5888 2.4170
1.6054 2.2059 1.6054 2.4546
1.6220 2.2431 1.6221 2.4919
1.6387 2.2806 1.6387 2.5293
1.6554 2.3180 1.6554 2.5668
1.6721 2.3549 1.6721 2.6036
1.6887 2.3919 1.6888 2.6406
1.7054 2.4294 1.7054 2.6781
1.7221 2.4675 1.7221 2.7162
1.7387 2.5057 1.7388 2.7544
1.7554 2.5446 1.7554 2.7933
1.7720 2.5821 1.7721 2.8308
1.7887 2.6216 1.7888 2.8703
1.8054 2.6596 1.8055 2.9083
1.8221 2.6973 1.8221 2.9460
1.8387 2.7352 1.8388 2.9840
1.8554 2.7734 1.8554 3.0221
1.8720 2.8132 1.8720 3.0619
1.8887 2.8525 1.8887 3.1012
1.9054 2.8922 1.9054 3.1410
1.9220 2.9329 1.9221 3.1816
1.9388 2.9738 1.9388 3.2225
1.9554 3.0144 1.9554 3.2631
1.9721 3.0554 1.9721 3.3041
1.9888 3.0953 1.9888 3.3440
2.0054 3.1355 2.0054 3.3842
2.0220 3.1763 2.0220 3.4250
2.0387 3.2169 2.0388 3.4656
2.0554 3.2575 2.0554 3.5062
2.0721 3.2987 2.0721 3.5475
2.0887 3.3395 2.0888 3.5882
2.1054 3.3811 2.1054 3.6298
2.1220 3.4229 2.1221 3.6716
2.1387 3.4634 2.1387 3.7121
2.1554 3.5048 2.1554 3.7535
2.1720 3.5459 2.1721 3.7946
2.1887 3.5878 2.1887 3.8365
2.2054 3.6318 2.2054 3.8805
2.2220 3.6757 2.2221 3.9244
2.2388 3.7213 2.2388 3.9700
2.2554 3.7668 2.2554 4.0155
2.2720 3.8102 2.2721 4.0589
2.2887 3.8565 2.2887 4.1052
2.3054 3.9011 2.3054 4.1498
2.3220 3.9456 2.3221 4.1944
2.3388 3.9904 2.3388 4.2391
2.3554 4.0335 2.3554 4.2822
2.3721 4.0769 2.3721 4.3257
2.3887 4.1214 2.3888 4.3702
2.4054 4.1643 2.4054 4.4130
2.4220 4.2089 2.4220 4.4576
2.4388 4.2535 2.4388 4.5022
2.4554 4.2979 2.4554 4.5467
2.4721 4.3411 2.4721 4.5898
2.4887 4.3845 2.4887 4.6332
2.5054 4.4277 2.5054 4.6764
2.5220 4.4713 2.5221 4.7200
2.5387 4.5160 2.5388 4.7647
2.5554 4.5595 2.5554 4.8082
2.5720 4.6032 2.5721 4.8520
2.5887 4.6456 2.5887 4.8943
2.6054 4.6907 2.6054 4.9394
2.6220 4.7339 2.6221 4.9826
2.6388 4.7769 2.6388 5.0256
2.6554 4.8208 2.6554 5.0695
2.6720 4.8620 2.6721 5.1107
2.6887 4.9034 2.6887 5.1521
2.7054 4.9459 2.7054 5.1946
2.7220 4.9882 2.7220 5.2370
2.7388 5.0316 2.7388 5.2803
2.7554 5.0742 2.7554 5.3229
2.7720 5.1155 2.7721 5.3643
2.7887 5.1563 2.7887 5.4050
2.8054 5.1977 2.8054 5.4464
2.8220 5.2391 2.8220 5.4878
2.8387 5.2793 2.8387 5.5280
2.8553 5.3185 2.8554 5.5672
2.8721 5.3597 2.8721 5.6084
2.8887 5.4015 2.8888 5.6503
2.9054 5.4426 2.9055 5.6914
2.9220 5.4845 2.9221 5.7332
2.9388 5.5245 2.9388 5.7732
2.9554 5.5639 2.9554 5.8126
2.9720 5.6041 2.9721 5.8528
2.9887 5.6439 2.9887 5.8927
3.0054 5.6844 3.0054 5.9331
3.0221 5.7236 3.0221 5.9723
3.0388 5.7626 3.0388 6.0113
3.0554 5.8016 3.0554 6.0504
3.0720 5.8421 3.0721 6.0908
3.0887 5.8818 3.0887 6.1305
3.1054 5.9225 3.1054 6.1712
3.1220 5.9618 3.1220 6.2105
3.1387 6.0016 3.1388 6.2504
3.1554 6.0404 3.1554 6.2891
3.1721 6.0791 3.1721 6.3278
3.1887 6.1186 3.1888 6.3673
3.2054 6.1574 3.2054 6.4061
3.2220 6.1971 3.2221 6.4458
3.2387 6.2370 3.2387 6.4857
3.2554 6.2763 3.2554 6.5250
3.2721 6.3157 3.2721 6.5644
3.2888 6.3552 3.2888 6.6039
3.3054 6.4018 3.3055 6.6505
3.3220 6.4721 3.3221 6.7208
3.3387 6.5482 3.3388 6.7970
3.3554 6.6251 3.3554 6.8739
3.3720 6.7055 3.3721 6.9542
3.3887 6.7892 3.3888 7.0379
3.4054 6.8749 3.4054 7.1236
3.4220 6.9625 3.4221 7.2112
3.4387 7.0482 3.4388 7.2969
3.4553 7.1320 3.4554 7.3807
3.4720 7.2168 3.4721 7.4655
3.4888 7.3004 3.4888 7.5491
3.5053 7.3846 3.5054 7.6333
3.5220 7.4699 3.5221 7.7187
3.5387 7.5563 3.5388 7.8050
3.5554 7.6420 3.5554 7.8907
3.5721 7.7271 3.5721 7.9758
3.5888 7.8115 3.5888 8.0603
3.6054 7.8962 3.6054 8.1449
3.6220 7.9794 3.6221 8.2281
3.6387 8.0599 3.6387 8.3086
3.6554 8.1419 3.6554 8.3906
3.6720 8.2229 3.6721 8.4717
3.6887 8.3086 3.6888 8.5573
3.7054 8.4022 3.7054 8.6510
3.7221 8.5139 3.7221 8.7626
3.7387 8.6386 3.7388 8.8873
3.7554 8.7649 3.7554 9.0136
3.7720 8.8915 3.7720 9.1402
3.7887 9.0262 3.7887 9.2749
3.8054 9.1586 3.8054 9.4073
3.8221 9.2919 3.8221 9.5406
3.8388 9.4283 3.8388 9.6770
3.8554 9.5640 3.8555 9.8127
3.8720 9.7001 3.8720 9.9488
3.8887 9.8428 3.8887 10.0915
3.9053 9.9854 3.9054 10.2342
3.9220 10.1324 3.9221 10.3811
3.9387 10.2805 3.9387 10.5292
3.9554 10.4318 3.9554 10.6805
3.9720 10.5849 3.9721 10.8337
3.9888 10.7394 3.9888 10.9881
4.0054 10.8927 4.0054 11.1414
4.0220 11.0504 4.0221 11.2991
4.0387 11.2077 4.0387 11.4564
4.0554 11.3686 4.0554 11.6173
4.0720 11.5329 4.0720 11.7816
4.0888 11.6979 4.0888 11.9466
4.1054 11.8657 4.1054 12.1144
4.1221 12.0376 4.1222 12.2864
4.1387 12.2098 4.1387 12.4586
4.1554 12.3863 4.1554 12.6350
4.1720 12.5605 4.1720 12.8092
4.1887 12.7377 4.1888 12.9864
4.2054 12.9187 4.2054 13.1675
4.2221 13.1005 4.2221 13.3492
4.2387 13.2838 4.2388 13.5325
4.2554 13.4701 4.2555 13.7188
4.2720 13.6559 4.2720 13.9047
4.2887 13.8517 4.2887 14.1004
4.3053 14.0472 4.3054 14.2960
4.3220 14.2486 4.3221 14.4973
4.3387 14.4526 4.3387 14.7013
4.3554 14.6567 4.3554 14.9054
4.3720 14.8622 4.3721 15.1109
4.3888 15.0691 4.3888 15.3179
4.4054 15.2755 4.4054 15.5242
4.4220 15.4829 4.4221 15.7317
4.4387 15.6885 4.4387 15.9372
4.4554 15.8967 4.4554 16.1454
4.4720 16.1071 4.4721 16.3559
4.4888 16.3167 4.4888 16.5654
4.5054 16.5249 4.5054 16.7736
4.5221 16.7361 4.5221 16.9849
4.5387 16.9472 4.5387 17.1959
4.5554 17.1650 4.5554 17.4137
4.5720 17.3896 4.5720 17.6383
4.5887 17.6205 4.5888 17.8692
4.6053 17.8561 4.6054 18.1048
4.6221 18.0949 4.6221 18.3436
4.6387 18.3330 4.6388 18.5817
4.6554 18.5728 4.6554 18.8215
4.6720 18.8033 4.6721 19.0520
4.6887 19.0363 4.6887 19.2850
4.7054 19.2722 4.7054 19.5209
4.7220 19.5094 4.7220 19.7581
4.7387 19.7540 4.7387 20.0027
4.7554 19.9958 4.7554 20.2445
4.7720 20.2329 4.7721 20.4816
4.7887 20.4763 4.7888 20.7250
4.8054 20.7151 4.8054 20.9638
4.8220 20.9553 4.8221 21.2040
4.8387 21.1975 4.8387 21.4462
4.8554 21.4381 4.8554 21.6869
4.8720 21.6799 4.8720 21.9286
4.8888 21.9275 4.8888 22.1763
4.9054 22.1706 4.9054 22.4193
4.9220 22.4207 4.9221 22.6695
4.9387 22.6675 4.9388 22.9163
4.9554 22.9124 4.9554 23.1611
4.9720 23.1581 4.9720 23.4068
4.9887 23.4028 4.9888 23.6515
5.0054 23.6532 5.0054 23.9020
5.0221 23.9033 5.0222 24.1520
5.0388 24.1478 5.0388 24.3966
5.0554 24.3959 5.0554 24.6446
5.0721 24.6454 5.0721 24.8941
5.0887 24.8956 5.0888 25.1443
5.1052 25.1458 5.1052 25.3945
5.1218 25.3962 5.1218 25.6450
5.1383 25.6463 5.1383 25.8950
5.1548 25.8967 5.1548 26.1455
5.1715 26.1455 5.1715 26.3942
5.1880 26.3959 5.1880 26.6447
5.2043 26.6460 5.2044 26.8947
5.2208 26.8964 5.2209 27.1452
5.2372 27.1468 5.2372 27.3956
5.2538 27.3971 5.2538 27.6458
5.2704 27.6472 5.2705 27.8959
5.2870 27.8974 5.2870 28.1462
5.3036 28.1476 5.3036 28.3963
5.3201 28.3979 5.3202 28.6466
5.3366 28.6484 5.3366 28.8971
5.3532 28.8953 5.3532 29.1440
5.3698 29.1423 5.3698 29.3910
5.3865 29.3920 5.3865 29.6408
5.4028 29.6424 5.4029 29.8912
5.4190 29.8927 5.4191 30.1415
5.4354 30.1429 5.4354 30.3916
5.4520 30.3900 5.4520 30.6387
5.4685 30.6404 5.4686 30.8891
5.4852 30.8906 5.4852 31.1393
5.5018 31.1397 5.5018 31.3885
5.5184 31.3899 5.5184 31.6386
5.5351 31.6386 5.5352 31.8874
5.5517 31.8888 5.5517 32.1375
5.5682 32.1392 5.5683 32.3880
5.5848 32.3887 5.5849 32.6375
5.6012 32.6389 5.6012 32.8876
5.6176 32.8893 5.6176 33.1381
5.6338 33.1394 5.6338 33.3881
5.6503 33.3895 5.6503 33.6382
5.6669 33.6398 5.6669 33.8885
5.6835 33.8893 5.6835 34.1381
5.6998 34.1397 5.6998 34.3884
5.7161 34.3900 5.7162 34.6387
5.7322 34.6400 5.7322 34.8888
5.7482 34.8904 5.7482 35.1391
5.7644 35.1407 5.7645 35.3895
5.7805 35.3912 5.7806 35.6400
5.7965 35.6417 5.7965 35.8904
5.8127 35.8919 5.8128 36.1406
5.8286 36.1423 5.8286 36.3911
5.8447 36.3924 5.8447 36.6411
5.8609 36.6427 5.8609 36.8914
5.8770 36.8929 5.8770 37.1417
5.8930 37.1432 5.8931 37.3919
5.9092 37.3936 5.9092 37.6423
5.9252 37.6438 5.9252 37.8926
5.9413 37.8943 5.9414 38.1430
5.9572 38.1443 5.9572 38.3930
5.9728 38.3945 5.9728 38.6432
5.9887 38.6445 5.9887 38.8932
6.0044 38.8947 6.0044 39.1434
6.0202 39.1447 6.0203 39.3935
6.0362 39.3952 6.0362 39.6439
6.0522 39.6453 6.0522 39.8941
6.0680 39.8954 6.0680 40.1441
6.0838 40.1458 6.0839 40.3945
6.0995 40.3959 6.0996 40.6447
6.1153 40.6462 6.1153 40.8949
6.1311 40.8967 6.1312 41.1454
6.1469 41.1470 6.1470 41.3957
6.1627 41.3972 6.1628 41.6460
6.1784 41.6474 6.1785 41.8962
6.1944 41.8975 6.1944 42.1462
6.2104 42.1475 6.2104 42.3962
6.2262 42.3979 6.2262 42.6466
6.2419 42.6479 6.2420 42.8967
6.2579 42.8984 6.2580 43.1472
6.2741 43.1490 6.2741 43.3977
6.2901 43.3996 6.2901 43.6483
6.3060 43.6496 6.3060 43.8983
6.3220 43.8998 6.3220 44.1485
6.3378 44.1499 6.3378 44.3986
6.3537 44.4003 6.3537 44.6490
6.3696 44.6504 6.3697 44.8991
6.3856 44.9005 6.3857 45.1493
6.4020 45.1511 6.4020 45.3998
6.4180 45.4013 6.4180 45.6500
6.4344 45.6515 6.4344 45.9002
6.4509 45.9018 6.4509 46.1506
6.4671 46.1523 6.4672 46.4011
6.4835 46.4024 6.4835 46.6511
6.4999 46.6526 6.4999 46.9014
6.5165 46.9028 6.5165 47.1515
6.5332 47.1511 6.5332 47.3998
6.5498 47.3994 6.5498 47.6481
6.5665 47.6487 6.5666 47.8974
6.5832 47.8981 6.5832 48.1468
6.5994 48.1486 6.5995 48.3973
6.6157 48.3989 6.6157 48.6476
6.6316 48.6489 6.6316 48.8976
6.6476 48.8992 6.6477 49.1479
6.6640 49.1493 6.6640 49.3981
6.6805 49.3998 6.6805 49.6485
6.6969 49.6502 6.6970 49.8989
6.7136 49.9005 6.7136 50.1492
6.7298 50.1508 6.7298 50.3995
6.7461 50.4009 6.7462 50.6496
6.7626 50.6514 6.7627 50.9001
6.7792 50.9015 6.7792 51.1502
6.7957 51.1516 6.7957 51.4003
6.8120 51.4017 6.8120 51.6505
6.8282 51.6520 6.8283 51.9007
6.8444 51.9025 6.8444 52.1512
6.8609 52.1527 6.8610 52.4014
6.8774 52.4030 6.8774 52.6517
6.8941 52.6534 6.8941 52.9021
6.9107 52.9025 6.9108 53.1513
6.9271 53.1526 6.9271 53.4013
6.9434 53.4026 6.9435 53.6514
6.9600 53.6527 6.9600 53.9014
6.9762 53.9030 6.9762 54.1517
6.9925 54.1530 6.9926 54.4017
7.0085 54.4034 7.0086 54.6521
7.0248 54.6538 7.0248 54.9025
7.0413 54.9039 7.0414 55.1526
7.0579 55.1544 7.0579 55.4031
7.0744 55.4049 7.0744 55.6537
7.0910 55.6542 7.0910 55.9029
7.1075 55.9043 7.1076 56.1531
7.1241 56.1547 7.1242 56.4034
7.1403 56.4048 7.1404 56.6535
7.1569 56.6552 7.1570 56.9039
7.1736 56.8986 7.1736 57.1473
7.1902 57.1440 7.1903 57.3928
7.2066 57.3944 7.2067 57.6431
7.2232 57.6445 7.2233 57.8932
7.2397 57.8948 7.2397 58.1436
7.2563 58.1392 7.2564 58.3879
7.2731 58.3877 7.2731 58.6364
7.2897 58.6356 7.2898 58.8843
7.3061 58.8858 7.3062 59.1346
7.3227 59.1357 7.3228 59.3845
7.3394 59.3847 7.3395 59.6334
7.3560 59.6214 7.3561 59.8701
7.3727 59.8606 7.3728 60.1094
7.3894 60.1012 7.3894 60.3499
7.4061 60.3498 7.4062 60.5985
7.4227 60.5959 7.4228 60.8446
7.4394 60.8390 7.4395 61.0877
7.4560 61.0769 7.4561 61.3256
7.4728 61.3232 7.4728 61.5719
7.4894 61.5603 7.4894 61.8090
7.5061 61.8023 7.5061 62.0510
7.5227 62.0444 7.5227 62.2931
7.5394 62.2883 7.5395 62.5370
7.5561 62.5276 7.5561 62.7764
7.5728 62.7648 7.5728 63.0136
7.5894 62.9982 7.5894 63.2469
7.6061 63.2378 7.6062 63.4866
7.6228 63.4729 7.6228 63.7216
7.6394 63.7106 7.6394 63.9594
7.6560 63.9484 7.6561 64.1971
7.6728 64.1851 7.6728 64.4338
7.6894 64.4204 7.6894 64.6691
7.7061 64.6535 7.7061 64.9022
7.7227 64.8855 7.7228 65.1342
7.7395 65.1248 7.7395 65.3735
7.7561 65.3548 7.7562 65.6036
7.7727 65.5802 7.7728 65.8289
7.7894 65.8099 7.7894 66.0586
7.8061 66.0471 7.8062 66.2958
7.8227 66.2817 7.8228 66.5304
7.8395 66.5210 7.8395 66.7697
7.8560 66.7492 7.8561 66.9980
7.8728 66.9787 7.8728 67.2274
7.8894 67.2046 7.8895 67.4533
7.9061 67.4313 7.9061 67.6800
7.9227 67.6619 7.9228 67.9106
7.9394 67.8921 7.9395 68.1408
7.9560 68.1149 7.9561 68.3636
7.9728 68.3456 7.9728 68.5943
7.9894 68.5691 7.9894 68.8178
8.0061 68.8028 8.0062 69.0516
8.0228 69.0292 8.0228 69.2779
8.0394 69.2535 8.0395 69.5022
8.0560 69.4735 8.0560 69.7222
8.0728 69.7026 8.0728 69.9513
8.0894 69.9236 8.0894 70.1723
8.1061 70.1487 8.1061 70.3974
8.1227 70.3724 8.1228 70.6211
8.1394 70.6001 8.1395 70.8489
8.1561 70.8263 8.1562 71.0751
8.1728 71.0490 8.1728 71.2977
8.1868 71.2334 8.1868 71.4821
