"Disp (mm) " "Load (kN)" "d (raw)" "f (raw)"
0 0 0 0.12
0.0162 0.0059 0.0162 0.1222
0.0333 0.0264 0.0333 0.1427
0.0500 0.0437 0.0500 0.1600
0.0667 0.0598 0.0667 0.1761
0.0834 0.0740 0.0834 0.1903
0.1000 0.0870 0.1000 0.2033
0.1166 0.0970 0.1166 0.2133
0.1334 0.1102 0.1334 0.2265
0.1500 0.1247 0.1500 0.2410
0.1667 0.1383 0.1667 0.2546
0.1834 0.1523 0.1834 0.2687
0.2001 0.1671 0.2001 0.2834
0.2167 0.1798 0.2167 0.2962
0.2333 0.1911 0.2333 0.3074
0.2500 0.2015 0.2500 0.3179
0.2667 0.2089 0.2667 0.3252
0.2833 0.2122 0.2833 0.3285
0.3000 0.2131 0.3000 0.3295
0.3167 0.2133 0.3167 0.3296
0.3334 0.2139 0.3334 0.3302
0.3500 0.2145 0.3500 0.3309
0.3667 0.2147 0.3667 0.3310
0.3833 0.2142 0.3833 0.3306
0.4000 0.2139 0.4000 0.3302
0.4166 0.2132 0.4166 0.3296
0.4334 0.2121 0.4334 0.3284
0.4500 0.2118 0.4500 0.3281
0.4668 0.2120 0.4668 0.3283
0.4834 0.2130 0.4834 0.3293
0.5000 0.2160 0.5000 0.3323
0.5166 0.2188 0.5166 0.3351
0.5333 0.2339 0.5333 0.3502
0.5500 0.2520 0.5500 0.3683
0.5667 0.2690 0.5667 0.3853
0.5834 0.2820 0.5834 0.3983
0.6000 0.2960 0.6000 0.4123
0.6167 0.3111 0.6167 0.4274
0.6334 0.3271 0.6334 0.4434
0.6500 0.3449 0.6500 0.4613
0.6667 0.3624 0.6667 0.4788
0.6833 0.3794 0.6833 0.4957
0.7000 0.3962 0.7000 0.5125
0.7167 0.4152 0.7167 0.5315
0.7334 0.4335 0.7334 0.5498
0.7500 0.4530 0.7500 0.5693
0.7667 0.4708 0.7667 0.5871
0.7834 0.4899 0.7834 0.6063
0.8000 0.5105 0.8000 0.6269
0.8166 0.5319 0.8166 0.6482
0.8334 0.5526 0.8334 0.6689
0.8500 0.5744 0.8500 0.6907
0.8667 0.5958 0.8667 0.7121
0.8834 0.6178 0.8834 0.7341
0.9000 0.6419 0.9000 0.7582
0.9167 0.6640 0.9167 0.7803
0.9333 0.6887 0.9333 0.8050
0.9500 0.7124 0.9500 0.8287
0.9667 0.7376 0.9667 0.8539
0.9834 0.7626 0.9834 0.8789
1.0000 0.7874 1.0000 0.9037
1.0167 0.8122 1.0167 0.9285
1.0334 0.8383 1.0334 0.9546
1.0500 0.8640 1.0500 0.9804
1.0667 0.8904 1.0667 1.0068
1.0834 0.9175 1.0834 1.0339
1.1000 0.9454 1.1000 1.0618
1.1167 0.9728 1.1167 1.0891
1.1334 1.0008 1.1334 1.1171
1.1500 1.0290 1.1500 1.1453
1.1667 1.0576 1.1667 1.1739
1.1833 1.0856 1.1833 1.2020
1.2000 1.1135 1.2000 1.2298
1.2167 1.1410 1.2167 1.2573
1.2334 1.1690 1.2334 1.2854
1.2501 1.1976 1.2501 1.3139
1.2667 1.2255 1.2667 1.3418
1.2834 1.2534 1.2834 1.3697
1.3000 1.2820 1.3000 1.3983
1.3167 1.3107 1.3167 1.4271
1.3333 1.3391 1.3333 1.4554
1.3500 1.3688 1.3500 1.4851
1.3667 1.3975 1.3667 1.5138
1.3834 1.4265 1.3834 1.5429
1.4000 1.4547 1.4000 1.5710
1.4167 1.4846 1.4167 1.6010
1.4334 1.5157 1.4334 1.6320
1.4500 1.5469 1.4500 1.6633
1.4667 1.5788 1.4667 1.6952
1.4834 1.6128 1.4834 1.7291
1.5000 1.6446 1.5000 1.7609
1.5167 1.6787 1.5167 1.7950
1.5334 1.7117 1.5334 1.8281
1.5500 1.7443 1.5500 1.8606
1.5667 1.7781 1.5667 1.8944
1.5834 1.8108 1.5834 1.9271
1.6000 1.8448 1.6000 1.9611
1.6167 1.8785 1.6167 1.9948
1.6333 1.9121 1.6333 2.0284
1.6500 1.9462 1.6500 2.0626
1.6667 1.9795 1.6667 2.0959
1.6834 2.0135 1.6834 2.1298
1.7000 2.0472 1.7000 2.1635
1.7167 2.0815 1.7167 2.1979
1.7333 2.1134 1.7333 2.2298
1.7500 2.1486 1.7500 2.2649
1.7667 2.1824 1.7667 2.2987
1.7834 2.2167 1.7834 2.3330
1.8000 2.2512 1.8000 2.3675
1.8166 2.2861 1.8166 2.4024
1.8333 2.3211 1.8333 2.4374
1.8500 2.3569 1.8500 2.4732
1.8666 2.3935 1.8666 2.5098
1.8834 2.4298 1.8834 2.5461
1.9000 2.4661 1.9000 2.5825
1.9167 2.5036 1.9167 2.6199
1.9334 2.5412 1.9334 2.6575
1.9501 2.5784 1.9501 2.6947
1.9667 2.6163 1.9667 2.7327
1.9834 2.6551 1.9834 2.7714
2.0000 2.6925 2.0000 2.8089
2.0167 2.7319 2.0167 2.8482
2.0333 2.7698 2.0333 2.8861
2.0501 2.8073 2.0501 2.9236
2.0667 2.8456 2.0667 2.9620
2.0834 2.8827 2.0834 2.9990
2.1000 2.9200 2.1000 3.0363
2.1167 2.9587 2.1167 3.0751
2.1334 2.9973 2.1334 3.1136
2.1500 3.0350 2.1500 3.1513
2.1666 3.0735 2.1666 3.1898
2.1834 3.1103 2.1834 3.2266
2.2000 3.1486 2.2000 3.2649
2.2167 3.1858 2.2167 3.3021
2.2334 3.2236 2.2334 3.3399
2.2500 3.2613 2.2500 3.3777
2.2667 3.2988 2.2667 3.4151
2.2834 3.3369 2.2834 3.4533
2.3000 3.3760 2.3000 3.4923
2.3167 3.4153 2.3167 3.5317
2.3334 3.4543 2.3334 3.5706
2.3501 3.4933 2.3501 3.6097
2.3667 3.5313 2.3667 3.6476
2.3834 3.5703 2.3834 3.6867
2.4001 3.6092 2.4001 3.7255
2.4167 3.6461 2.4167 3.7624
2.4334 3.6861 2.4334 3.8024
2.4500 3.7240 2.4500 3.8403
2.4667 3.7634 2.4667 3.8797
2.4834 3.8032 2.4834 3.9195
2.5000 3.8417 2.5000 3.9581
2.5167 3.8813 2.5167 3.9977
2.5334 3.9203 2.5334 4.0366
2.5500 3.9576 2.5500 4.0739
2.5667 3.9974 2.5667 4.1138
2.5834 4.0357 2.5834 4.1520
2.6000 4.0754 2.6000 4.1917
2.6167 4.1154 2.6167 4.2317
2.6334 4.1544 2.6334 4.2707
2.6500 4.1955 2.6500 4.3118
2.6667 4.2353 2.6667 4.3516
2.6833 4.2749 2.6833 4.3912
2.7000 4.3154 2.7000 4.4318
2.7167 4.3537 2.7167 4.4700
2.7334 4.3937 2.7334 4.5100
2.7500 4.4324 2.7500 4.5487
2.7667 4.4715 2.7667 4.5878
2.7833 4.5130 2.7833 4.6293
2.8000 4.5538 2.8000 4.6701
2.8166 4.5952 2.8166 4.7116
2.8333 4.6373 2.8333 4.7537
2.8500 4.6800 2.8500 4.7964
2.8667 4.7213 2.8667 4.8377
2.8834 4.7633 2.8834 4.8797
2.9001 4.8039 2.9001 4.9203
2.9167 4.8450 2.9167 4.9613
2.9333 4.8876 2.9333 5.0039
2.9500 4.9302 2.9500 5.0465
2.9667 4.9740 2.9667 5.0903
2.9834 5.0169 2.9834 5.1332
3.0000 5.0601 3.0000 5.1765
3.0167 5.1035 3.0167 5.2198
3.0334 5.1460 3.0334 5.2623
3.0500 5.1883 3.0500 5.3047
3.0667 5.2322 3.0667 5.3486
3.0834 5.2751 3.0834 5.3915
3.1000 5.3183 3.1000 5.4347
3.1166 5.3616 3.1166 5.4779
3.1334 5.4061 3.1334 5.5224
3.1500 5.4504 3.1500 5.5667
3.1667 5.4942 3.1667 5.6105
3.1833 5.5375 3.1833 5.6539
3.2000 5.5819 3.2000 5.6982
3.2167 5.6239 3.2167 5.7403
3.2334 5.6686 3.2334 5.7850
3.2500 5.7129 3.2500 5.8292
3.2667 5.7569 3.2667 5.8732
3.2834 5.8015 3.2834 5.9179
3.3000 5.8465 3.3000 5.9628
3.3166 5.8898 3.3166 6.0062
3.3333 5.9353 3.3333 6.0517
3.3500 5.9791 3.3500 6.0954
3.3667 6.0245 3.3667 6.1408
3.3833 6.0692 3.3833 6.1855
3.4001 6.1139 3.4001 6.2302
3.4167 6.1583 3.4167 6.2746
3.4334 6.2035 3.4334 6.3198
3.4500 6.2476 3.4500 6.3640
3.4667 6.2931 3.4667 6.4095
3.4834 6.3394 3.4834 6.4558
3.5000 6.3841 3.5000 6.5004
3.5167 6.4298 3.5167 6.5461
3.5334 6.4755 3.5334 6.5919
3.5500 6.5190 3.5500 6.6353
3.5667 6.5645 3.5667 6.6809
3.5834 6.6086 3.5834 6.7250
3.6000 6.6545 3.6000 6.7709
3.6167 6.7015 3.6167 6.8179
3.6333 6.7463 3.6333 6.8627
3.6500 6.7939 3.6500 6.9102
3.6667 6.8411 3.6667 6.9575
3.6834 6.8859 3.6834 7.0022
3.7001 6.9322 3.7001 7.0485
3.7167 6.9761 3.7167 7.0924
3.7334 7.0218 3.7334 7.1381
3.7500 7.0667 3.7500 7.1830
3.7667 7.1130 3.7667 7.2294
3.7833 7.1582 3.7833 7.2746
3.8001 7.2055 3.8001 7.3218
3.8167 7.2498 3.8167 7.3662
3.8334 7.2974 3.8334 7.4137
3.8500 7.3426 3.8500 7.4589
3.8667 7.3879 3.8667 7.5042
3.8834 7.4338 3.8834 7.5501
3.9000 7.4775 3.9000 7.5938
3.9166 7.5231 3.9166 7.6394
3.9334 7.5708 3.9334 7.6871
3.9500 7.6166 3.9500 7.7330
3.9667 7.6634 3.9667 7.7797
3.9834 7.7095 3.9834 7.8258
4.0000 7.7547 4.0000 7.8710
4.0167 7.8008 4.0167 7.9171
4.0334 7.8462 4.0334 7.9625
4.0500 7.8906 4.0500 8.0070
4.0667 7.9377 4.0667 8.0540
4.0834 7.9817 4.0834 8.0980
4.1000 8.0272 4.1000 8.1435
4.1167 8.0727 4.1167 8.1891
4.1334 8.1190 4.1334 8.2354
4.1500 8.1642 4.1500 8.2806
4.1667 8.2090 4.1667 8.3254
4.1834 8.2534 4.1834 8.3697
4.2000 8.2997 4.2000 8.4161
4.2167 8.3436 4.2167 8.4599
4.2334 8.3879 4.2334 8.5042
4.2500 8.4321 4.2500 8.5484
4.2667 8.4763 4.2667 8.5926
4.2833 8.5211 4.2833 8.6374
4.3000 8.5660 4.3000 8.6824
4.3167 8.6108 4.3167 8.7271
4.3334 8.6574 4.3334 8.7737
4.3501 8.7011 4.3501 8.8174
4.3667 8.7467 4.3667 8.8630
4.3834 8.7906 4.3834 8.9069
4.4000 8.8344 4.4000 8.9508
4.4166 8.8775 4.4166 8.9939
4.4333 8.9226 4.4333 9.0389
4.4500 8.9666 4.4500 9.0830
4.4667 9.0122 4.4667 9.1285
4.4834 9.0576 4.4834 9.1739
4.5000 9.1023 4.5000 9.2187
4.5167 9.1474 4.5167 9.2637
4.5334 9.1916 4.5334 9.3079
4.5500 9.2359 4.5500 9.3522
4.5667 9.2807 4.5667 9.3971
4.5834 9.3241 4.5834 9.4404
4.6000 9.3684 4.6000 9.4847
4.6167 9.4136 4.6167 9.5299
4.6334 9.4585 4.6334 9.5748
4.6501 9.5029 4.6501 9.6192
4.6667 9.5454 4.6667 9.6617
4.6833 9.5890 4.6833 9.7054
4.7000 9.6330 4.7000 9.7493
4.7167 9.6770 4.7167 9.7933
4.7334 9.7217 4.7334 9.8381
4.7501 9.7667 4.7501 9.8830
4.7667 9.8093 4.7667 9.9257
4.7834 9.8538 4.7834 9.9701
4.8000 9.8989 4.8000 10.0152
4.8167 9.9425 4.8167 10.0589
4.8333 9.9866 4.8333 10.1029
4.8500 10.0317 4.8500 10.1481
4.8667 10.0753 4.8667 10.1916
4.8834 10.1184 4.8834 10.2347
4.9000 10.1598 4.9000 10.2762
4.9167 10.2020 4.9167 10.3183
4.9333 10.2458 4.9333 10.3621
4.9500 10.2887 4.9500 10.4050
4.9666 10.3337 4.9666 10.4500
4.9834 10.3783 4.9834 10.4946
5.0000 10.4207 5.0000 10.5370
5.0168 10.4637 5.0168 10.5801
5.0334 10.5044 5.0334 10.6208
5.0500 10.5436 5.0500 10.6599
5.0667 10.5832 5.0667 10.6995
5.0834 10.6213 5.0834 10.7376
5.1000 10.6596 5.1000 10.7760
5.1167 10.6976 5.1167 10.8140
5.1333 10.7340 5.1333 10.8504
5.1500 10.7714 5.1500 10.8878
5.1667 10.8068 5.1667 10.9231
5.1834 10.8435 5.1834 10.9598
5.2000 10.8808 5.2000 10.9972
5.2167 10.9165 5.2167 11.0329
5.2333 10.9544 5.2333 11.0707
5.2500 10.9933 5.2500 11.1096
5.2666 11.0313 5.2666 11.1476
5.2834 11.0742 5.2834 11.1905
5.3000 11.1228 5.3000 11.2391
5.3167 11.1743 5.3167 11.2906
5.3334 11.2283 5.3334 11.3447
5.3500 11.2817 5.3500 11.3980
5.3666 11.3341 5.3666 11.4504
5.3834 11.3884 5.3834 11.5048
5.4000 11.4415 5.4000 11.5579
5.4167 11.4953 5.4167 11.6116
5.4334 11.5513 5.4334 11.6676
5.4501 11.6057 5.4501 11.7221
5.4667 11.6616 5.4667 11.7779
5.4834 11.7172 5.4834 11.8335
5.5000 11.7721 5.5000 11.8884
5.5167 11.8309 5.5167 11.9473
5.5333 11.8879 5.5333 12.0042
5.5500 11.9472 5.5500 12.0636
5.5667 12.0052 5.5667 12.1215
5.5834 12.0619 5.5834 12.1783
5.6000 12.1203 5.6000 12.2366
5.6167 12.1807 5.6167 12.2971
5.6333 12.2403 5.6333 12.3566
5.6500 12.3020 5.6500 12.4184
5.6666 12.3615 5.6666 12.4779
5.6834 12.4233 5.6834 12.5396
5.7000 12.4865 5.7000 12.6028
5.7167 12.5519 5.7167 12.6683
5.7333 12.6236 5.7333 12.7399
5.7500 12.6979 5.7500 12.8142
5.7667 12.7748 5.7667 12.8912
5.7834 12.8548 5.7834 12.9711
5.8000 12.9388 5.8000 13.0552
5.8167 13.0216 5.8167 13.1379
5.8334 13.1050 5.8334 13.2214
5.8501 13.1890 5.8501 13.3054
5.8667 13.2721 5.8667 13.3885
5.8834 13.3576 5.8834 13.4740
5.9000 13.4417 5.9000 13.5580
5.9166 13.5279 5.9166 13.6443
5.9334 13.6192 5.9334 13.7355
5.9500 13.7099 5.9500 13.8263
5.9667 13.8037 5.9667 13.9200
5.9834 13.8983 5.9834 14.0147
6.0000 13.9908 6.0000 14.1071
6.0167 14.0862 6.0167 14.2026
6.0334 14.1805 6.0334 14.2969
6.0500 14.2758 6.0500 14.3922
6.0667 14.3740 6.0667 14.4903
6.0834 14.4738 6.0834 14.5901
6.1000 14.5754 6.1000 14.6917
6.1167 14.6796 6.1167 14.7959
6.1334 14.7819 6.1334 14.8982
6.1500 14.8896 6.1500 15.0060
6.1667 15.0031 6.1667 15.1195
6.1833 15.1181 6.1833 15.2344
6.2000 15.2357 6.2000 15.3520
6.2167 15.3529 6.2167 15.4692
6.2334 15.4726 6.2334 15.5889
6.2500 15.5947 6.2500 15.7111
6.2667 15.7157 6.2667 15.8320
6.2834 15.8402 6.2834 15.9565
6.3000 15.9641 6.3000 16.0805
6.3167 16.0913 6.3167 16.2076
6.3333 16.2209 6.3333 16.3372
6.3500 16.3514 6.3500 16.4677
6.3667 16.4817 6.3667 16.5980
6.3834 16.6133 6.3834 16.7296
6.4001 16.7465 6.4001 16.8628
6.4167 16.8801 6.4167 16.9965
6.4334 17.0181 6.4334 17.1345
6.4500 17.1609 6.4500 17.2773
6.4667 17.3140 6.4667 17.4303
6.4834 17.4704 6.4834 17.5867
6.5000 17.6266 6.5000 17.7429
6.5167 17.7898 6.5167 17.9062
6.5334 17.9553 6.5334 18.0716
6.5500 18.1200 6.5500 18.2363
6.5667 18.2903 6.5667 18.4066
6.5833 18.4606 6.5833 18.5769
6.6000 18.6369 6.6000 18.7533
6.6167 18.8187 6.6167 18.9351
6.6334 19.0031 6.6334 19.1194
6.6500 19.1945 6.6500 19.3109
6.6667 19.3881 6.6667 19.5044
6.6834 19.5833 6.6834 19.6996
6.7000 19.7873 6.7000 19.9037
6.7166 19.9929 6.7166 20.1093
6.7333 20.2103 6.7333 20.3267
6.7500 20.4287 6.7500 20.5450
6.7668 20.6505 6.7668 20.7669
6.7834 20.8732 6.7834 20.9895
6.8001 21.1012 6.8001 21.2175
6.8167 21.3325 6.8167 21.4488
6.8333 21.5674 6.8333 21.6838
6.8429 21.7055 6.8429 21.8218
   
"Disp (mm) " "Load (kN)" "d (raw)" "f (raw)"
0 0 1.8146 0.5073
0.0164 0.0196 1.8310 0.5269
0.0333 0.0493 1.8479 0.5566
0.0500 0.0776 1.8646 0.5849
0.0666 0.1058 1.8812 0.6131
0.0834 0.1340 1.8980 0.6413
0.1000 0.1627 1.9146 0.6700
0.1167 0.1927 1.9313 0.7001
0.1333 0.2221 1.9479 0.7294
0.1500 0.2515 1.9646 0.7589
0.1666 0.2812 1.9812 0.7885
0.1833 0.3109 1.9979 0.8182
0.2000 0.3404 2.0146 0.8477
0.2167 0.3700 2.0313 0.8774
0.2334 0.3997 2.0480 0.9070
0.2500 0.4305 2.0646 0.9378
0.2666 0.4631 2.0812 0.9704
0.2833 0.4961 2.0979 1.0034
0.2999 0.5296 2.1145 1.0369
0.3166 0.5633 2.1312 1.0706
0.3333 0.5980 2.1479 1.1053
0.3500 0.6330 2.1646 1.1403
0.3666 0.6689 2.1812 1.1762
0.3833 0.7045 2.1979 1.2118
0.4000 0.7408 2.2146 1.2481
0.4166 0.7770 2.2312 1.2843
0.4333 0.8147 2.2479 1.3220
0.4500 0.8518 2.2646 1.3591
0.4666 0.8889 2.2812 1.3962
0.4834 0.9286 2.2980 1.4359
0.5000 0.9664 2.3146 1.4737
0.5167 1.0050 2.3313 1.5123
0.5333 1.0430 2.3479 1.5503
0.5500 1.0819 2.3646 1.5892
0.5666 1.1201 2.3812 1.6274
0.5833 1.1579 2.3979 1.6652
0.6000 1.1960 2.4146 1.7033
0.6167 1.2342 2.4313 1.7415
0.6333 1.2724 2.4479 1.7797
0.6500 1.3121 2.4646 1.8194
0.6666 1.3527 2.4812 1.8600
0.6833 1.3940 2.4979 1.9013
0.7000 1.4356 2.5146 1.9429
0.7166 1.4769 2.5312 1.9842
0.7333 1.5169 2.5479 2.0242
0.7500 1.5588 2.5646 2.0661
0.7667 1.6000 2.5813 2.1073
0.7834 1.6430 2.5980 2.1504
0.8000 1.6861 2.6146 2.1934
0.8167 1.7290 2.6313 2.2364
0.8333 1.7726 2.6479 2.2799
0.8500 1.8170 2.6646 2.3243
0.8666 1.8605 2.6812 2.3678
0.8834 1.9052 2.6980 2.4126
0.9000 1.9467 2.7146 2.4540
0.9166 1.9893 2.7312 2.4966
0.9333 2.0321 2.7479 2.5394
0.9500 2.0742 2.7646 2.5815
0.9666 2.1175 2.7812 2.6248
0.9833 2.1617 2.7979 2.6690
0.9999 2.2043 2.8145 2.7116
1.0166 2.2482 2.8312 2.7555
1.0334 2.2911 2.8480 2.7984
1.0500 2.3343 2.8646 2.8416
1.0666 2.3759 2.8812 2.8832
1.0833 2.4167 2.8979 2.9240
1.0999 2.4593 2.9145 2.9666
1.1166 2.5020 2.9312 3.0093
1.1332 2.5432 2.9478 3.0505
1.1500 2.5878 2.9646 3.0951
1.1667 2.6316 2.9813 3.1389
1.1833 2.6750 2.9979 3.1823
1.2000 2.7185 3.0146 3.2258
1.2166 2.7613 3.0312 3.2686
1.2333 2.8052 3.0479 3.3125
1.2500 2.8494 3.0646 3.3567
1.2666 2.8921 3.0812 3.3994
1.2833 2.9357 3.0979 3.4430
1.3000 2.9793 3.1146 3.4866
1.3166 3.0234 3.1312 3.5307
1.3333 3.0676 3.1479 3.5749
1.3500 3.1120 3.1646 3.6193
1.3666 3.1555 3.1812 3.6628
1.3833 3.1992 3.1979 3.7066
1.4000 3.2431 3.2146 3.7504
1.4167 3.2865 3.2313 3.7938
1.4334 3.3314 3.2480 3.8388
1.4500 3.3749 3.2646 3.8822
1.4667 3.4188 3.2813 3.9261
1.4833 3.4628 3.2979 3.9701
1.5000 3.5065 3.3146 4.0138
1.5166 3.5511 3.3312 4.0584
1.5334 3.5963 3.3480 4.1036
1.5500 3.6408 3.3646 4.1481
1.5667 3.6859 3.3813 4.1932
1.5834 3.7308 3.3980 4.2381
1.6000 3.7762 3.4146 4.2836
1.6166 3.8222 3.4312 4.3295
1.6333 3.8697 3.4479 4.3770
1.6500 3.9176 3.4646 4.4249
1.6667 3.9667 3.4813 4.4740
1.6833 4.0136 3.4979 4.5209
1.7000 4.0621 3.5146 4.5695
1.7167 4.1090 3.5313 4.6163
1.7333 4.1566 3.5479 4.6639
1.7500 4.2046 3.5646 4.7119
1.7666 4.2516 3.5812 4.7589
1.7833 4.2994 3.5979 4.8067
1.8000 4.3505 3.6146 4.8578
1.8166 4.3973 3.6312 4.9046
1.8333 4.4476 3.6479 4.9549
1.8500 4.4982 3.6646 5.0055
1.8667 4.5473 3.6813 5.0546
1.8833 4.5966 3.6979 5.1039
1.9000 4.6450 3.7146 5.1524
1.9166 4.6944 3.7312 5.2017
1.9333 4.7441 3.7479 5.2514
1.9500 4.7932 3.7646 5.3006
1.9667 4.8439 3.7813 5.3512
1.9834 4.8928 3.7980 5.4001
2.0000 4.9434 3.8146 5.4507
2.0166 4.9948 3.8312 5.5021
2.0333 5.0439 3.8479 5.5512
2.0499 5.0932 3.8645 5.6005
2.0667 5.1439 3.8813 5.6512
2.0833 5.1927 3.8979 5.7000
2.1000 5.2427 3.9146 5.7500
2.1167 5.2936 3.9313 5.8009
2.1334 5.3439 3.9480 5.8512
2.1500 5.3955 3.9646 5.9028
2.1667 5.4472 3.9813 5.9545
2.1833 5.4964 3.9979 6.0037
2.2000 5.5482 4.0146 6.0555
2.2166 5.5979 4.0312 6.1052
2.2333 5.6482 4.0479 6.1555
2.2500 5.6988 4.0646 6.2061
2.2667 5.7486 4.0813 6.2560
2.2833 5.7981 4.0979 6.3055
2.3000 5.8487 4.1146 6.3560
2.3166 5.8994 4.1312 6.4067
2.3333 5.9504 4.1479 6.4577
2.3500 6.0009 4.1646 6.5082
2.3667 6.0519 4.1813 6.5592
2.3833 6.1032 4.1979 6.6105
2.4000 6.1516 4.2146 6.6589
2.4166 6.2012 4.2312 6.7085
2.4333 6.2514 4.2479 6.7587
2.4499 6.3003 4.2645 6.8076
2.4666 6.3520 4.2812 6.8593
2.4833 6.4020 4.2979 6.9093
2.5000 6.4530 4.3146 6.9603
2.5166 6.5036 4.3312 7.0109
2.5334 6.5560 4.3480 7.0633
2.5500 6.6064 4.3646 7.1137
2.5667 6.6567 4.3813 7.1640
2.5833 6.7062 4.3979 7.2135
2.5999 6.7561 4.4145 7.2634
2.6166 6.8069 4.4312 7.3142
2.6334 6.8562 4.4480 7.3635
2.6500 6.9075 4.4646 7.4148
2.6667 6.9589 4.4813 7.4662
2.6833 7.0095 4.4979 7.5168
2.7000 7.0621 4.5146 7.5694
2.7166 7.1130 4.5312 7.6203
2.7333 7.1626 4.5479 7.6699
2.7500 7.2142 4.5646 7.7215
2.7667 7.2645 4.5813 7.7718
2.7833 7.3150 4.5979 7.8223
2.8000 7.3659 4.6146 7.8732
2.8166 7.4162 4.6312 7.9235
2.8333 7.4671 4.6479 7.9744
2.8500 7.5176 4.6646 8.0249
2.8666 7.5671 4.6812 8.0744
2.8833 7.6180 4.6979 8.1253
2.9000 7.6682 4.7146 8.1755
2.9166 7.7193 4.7312 8.2266
2.9333 7.7691 4.7479 8.2764
2.9500 7.8198 4.7646 8.3271
2.9666 7.8704 4.7812 8.3777
2.9833 7.9216 4.7979 8.4289
3.0000 7.9717 4.8146 8.4791
3.0166 8.0224 4.8312 8.5297
3.0334 8.0734 4.8480 8.5807
3.0500 8.1233 4.8646 8.6306
3.0667 8.1736 4.8813 8.6809
3.0833 8.2221 4.8979 8.7294
3.1000 8.2705 4.9146 8.7778
3.1166 8.3207 4.9312 8.8280
3.1333 8.3698 4.9479 8.8772
3.1500 8.4219 4.9646 8.9292
3.1667 8.4736 4.9813 8.9809
3.1834 8.5229 4.9980 9.0302
3.2000 8.5734 5.0146 9.0808
3.2167 8.6227 5.0313 9.1300
3.2333 8.6708 5.0479 9.1781
3.2500 8.7199 5.0646 9.2272
3.2666 8.7685 5.0812 9.2758
3.2833 8.8170 5.0979 9.3244
3.3000 8.8678 5.1146 9.3751
3.3167 8.9164 5.1313 9.4237
3.3333 8.9653 5.1479 9.4727
3.3500 9.0135 5.1646 9.5208
3.3666 9.0609 5.1812 9.5682
3.3833 9.1091 5.1979 9.6164
3.3999 9.1553 5.2145 9.6626
3.4166 9.2032 5.2312 9.7105
3.4333 9.2505 5.2479 9.7579
3.4500 9.2976 5.2646 9.8049
3.4666 9.3445 5.2812 9.8518
3.4834 9.3914 5.2980 9.8987
3.5000 9.4375 5.3146 9.9448
3.5166 9.4853 5.3312 9.9926
3.5333 9.5324 5.3479 10.0397
3.5500 9.5801 5.3646 10.0874
3.5666 9.6276 5.3812 10.1349
3.5834 9.6746 5.3980 10.1820
3.6000 9.7237 5.4146 10.2310
3.6167 9.7830 5.4313 10.2903
3.6333 9.8432 5.4479 10.3506
3.6500 9.9059 5.4646 10.4132
3.6666 9.9674 5.4812 10.4747
3.6834 10.0286 5.4980 10.5359
3.7000 10.0915 5.5146 10.5988
3.7167 10.1535 5.5313 10.6608
3.7333 10.2140 5.5479 10.7213
3.7500 10.2779 5.5646 10.7852
3.7667 10.3387 5.5813 10.8460
3.7833 10.4029 5.5979 10.9102
3.7999 10.4691 5.6145 10.9764
3.8166 10.5350 5.6312 11.0423
3.8333 10.6039 5.6479 11.1112
3.8500 10.6712 5.6646 11.1786
3.8667 10.7377 5.6813 11.2450
3.8834 10.8051 5.6980 11.3124
3.9000 10.8712 5.7146 11.3785
3.9166 10.9393 5.7312 11.4466
3.9332 11.0064 5.7478 11.5138
3.9500 11.0756 5.7646 11.5829
3.9666 11.1474 5.7812 11.6547
3.9834 11.2287 5.7980 11.7360
4.0000 11.3119 5.8146 11.8192
4.0167 11.4000 5.8313 11.9074
4.0333 11.4886 5.8479 11.9960
4.0500 11.5784 5.8646 12.0857
4.0666 11.6688 5.8812 12.1761
4.0833 11.7590 5.8979 12.2663
4.1000 11.8506 5.9146 12.3579
4.1167 11.9469 5.9313 12.4542
4.1333 12.0423 5.9479 12.5496
4.1500 12.1408 5.9646 12.6482
4.1667 12.2424 5.9813 12.7497
4.1833 12.3420 5.9979 12.8493
4.1999 12.4436 6.0145 12.9510
4.2166 12.5459 6.0312 13.0532
4.2333 12.6476 6.0479 13.1549
4.2500 12.7546 6.0646 13.2619
4.2666 12.8589 6.0812 13.3662
4.2834 12.9653 6.0980 13.4726
4.3000 13.0764 6.1146 13.5838
4.3167 13.1882 6.1313 13.6955
4.3333 13.2994 6.1479 13.8067
4.3500 13.4120 6.1646 13.9193
4.3666 13.5223 6.1812 14.0296
4.3833 13.6396 6.1979 14.1469
4.4000 13.7621 6.2146 14.2694
4.4166 13.8881 6.2312 14.3954
4.4333 14.0173 6.2479 14.5246
4.4500 14.1466 6.2646 14.6539
4.4666 14.2778 6.2812 14.7851
4.4833 14.4133 6.2979 14.9206
4.5000 14.5478 6.3146 15.0551
4.5166 14.6883 6.3312 15.1956
4.5334 14.8263 6.3480 15.3337
4.5500 14.9654 6.3646 15.4727
4.5666 15.1084 6.3812 15.6157
4.5834 15.2493 6.3980 15.7566
4.5999 15.3918 6.4145 15.8991
4.6166 15.5391 6.4312 16.0464
4.6333 15.6898 6.4479 16.1971
4.6500 15.8513 6.4646 16.3586
4.6667 16.0155 6.4813 16.5228
4.6834 16.1830 6.4980 16.6904
4.7000 16.3561 6.5146 16.8634
4.7167 16.5320 6.5313 17.0393
4.7333 16.7080 6.5479 17.2153
4.7500 16.8895 6.5646 17.3968
4.7666 17.0730 6.5812 17.5804
4.7833 17.2633 6.5979 17.7706
4.8000 17.4577 6.6146 17.9650
4.8166 17.6533 6.6312 18.1606
4.8333 17.8583 6.6479 18.3656
4.8500 18.0653 6.6646 18.5726
4.8666 18.2772 6.6812 18.7846
4.8833 18.4971 6.6979 19.0044
4.9000 18.7176 6.7146 19.2250
4.9166 18.9494 6.7312 19.4567
4.9333 19.1849 6.7479 19.6923
4.9500 19.4235 6.7646 19.9308
4.9549 19.4928 6.7695 20.0001
4.9549 19.4932 6.7695 20.0005
4.9389 19.3184 6.7535 19.8258
4.9284 19.0678 6.7430 19.5751
4.9185 18.8174 6.7331 19.3247
4.9083 18.5670 6.7229 19.0743
4.8974 18.3169 6.7120 18.8242
4.8863 18.0663 6.7009 18.5737
4.8748 17.8162 6.6894 18.3235
4.8629 17.5658 6.6775 18.0731
4.8503 17.3152 6.6649 17.8225
4.8375 17.0649 6.6521 17.5722
4.8243 16.8147 6.6389 17.3221
4.8104 16.5645 6.6250 17.0718
4.7960 16.3144 6.6106 16.8218
4.7814 16.0639 6.5960 16.5713
4.7663 15.8138 6.5809 16.3212
4.7506 15.5635 6.5652 16.0708
4.7346 15.3133 6.5492 15.8206
4.7180 15.0632 6.5326 15.5705
4.7013 14.8141 6.5159 15.3214
4.6846 14.5698 6.4992 15.0771
4.6679 14.3330 6.4825 14.8403
4.6513 14.0994 6.4659 14.6067
4.6346 13.8715 6.4492 14.3788
4.6179 13.6555 6.4325 14.1629
4.6012 13.4460 6.4158 13.9533
4.5846 13.2476 6.3992 13.7550
4.5680 13.0509 6.3826 13.5582
4.5513 12.8549 6.3659 13.3622
4.5346 12.6607 6.3492 13.1680
4.5180 12.4676 6.3326 12.9749
4.5012 12.2795 6.3158 12.7869
4.4846 12.0984 6.2992 12.6058
4.4679 11.9190 6.2825 12.4263
4.4513 11.7462 6.2659 12.2535
4.4346 11.5751 6.2492 12.0824
4.4180 11.4052 6.2326 11.9125
4.4012 11.2415 6.2158 11.7488
4.3846 11.0823 6.1992 11.5896
4.3679 10.9319 6.1825 11.4392
4.3513 10.7891 6.1659 11.2965
4.3346 10.6454 6.1492 11.1528
4.3180 10.5075 6.1326 11.0149
4.3013 10.3720 6.1159 10.8793
4.2846 10.2374 6.0992 10.7447
4.2679 10.1076 6.0825 10.6149
4.2513 9.9799 6.0659 10.4872
4.2346 9.8511 6.0492 10.3584
4.2179 9.7272 6.0325 10.2345
4.2012 9.6062 6.0158 10.1135
4.1846 9.4897 5.9992 9.9970
4.1680 9.3796 5.9826 9.8869
4.1513 9.2692 5.9659 9.7765
4.1346 9.1633 5.9492 9.6706
4.1179 9.0615 5.9325 9.5688
4.1012 8.9619 5.9158 9.4692
4.0846 8.8673 5.8992 9.3746
4.0680 8.7734 5.8826 9.2807
4.0513 8.6807 5.8659 9.1880
4.0346 8.5921 5.8492 9.0994
4.0180 8.5048 5.8326 9.0121
4.0012 8.4192 5.8158 8.9265
3.9846 8.3366 5.7992 8.8439
3.9679 8.2551 5.7825 8.7624
3.9512 8.1782 5.7658 8.6855
3.9346 8.1044 5.7492 8.6117
3.9179 8.0314 5.7325 8.5387
3.9013 7.9614 5.7159 8.4687
3.8846 7.8901 5.6992 8.3974
3.8679 7.8200 5.6825 8.3274
3.8512 7.7501 5.6658 8.2574
3.8346 7.6809 5.6492 8.1882
3.8179 7.6134 5.6325 8.1207
3.8012 7.5482 5.6158 8.0555
3.7846 7.4816 5.5992 7.9889
3.7679 7.4179 5.5825 7.9252
3.7512 7.3541 5.5658 7.8614
3.7346 7.2912 5.5492 7.7985
3.7180 7.2304 5.5326 7.7377
3.7012 7.1666 5.5158 7.6740
3.6846 7.1062 5.4992 7.6135
3.6679 7.0463 5.4825 7.5536
3.6512 6.9865 5.4658 7.4938
3.6346 6.9277 5.4492 7.4350
3.6179 6.8694 5.4325 7.3767
3.6012 6.8122 5.4158 7.3195
3.5846 6.7606 5.3992 7.2679
3.5679 6.7093 5.3825 7.2166
3.5512 6.6579 5.3658 7.1652
3.5346 6.6082 5.3492 7.1155
3.5180 6.5571 5.3326 7.0644
3.5013 6.5065 5.3159 7.0138
3.4846 6.4571 5.2992 6.9644
3.4680 6.4084 5.2826 6.9157
3.4512 6.3607 5.2658 6.8681
3.4346 6.3117 5.2492 6.8190
3.4179 6.2630 5.2325 6.7703
3.4012 6.2152 5.2158 6.7225
3.3846 6.1666 5.1992 6.6739
3.3680 6.1192 5.1826 6.6265
3.3512 6.0715 5.1658 6.5788
3.3346 6.0234 5.1492 6.5307
3.3179 5.9751 5.1325 6.4824
3.3012 5.9284 5.1158 6.4357
3.2846 5.8815 5.0992 6.3888
3.2679 5.8348 5.0825 6.3422
3.2512 5.7876 5.0658 6.2949
3.2346 5.7410 5.0492 6.2483
3.2179 5.6940 5.0325 6.2013
3.2013 5.6473 5.0159 6.1546
3.1846 5.6016 4.9992 6.1089
3.1679 5.5567 4.9825 6.0640
3.1512 5.5087 4.9658 6.0160
3.1346 5.4640 4.9492 5.9713
3.1179 5.4182 4.9325 5.9255
3.1013 5.3733 4.9159 5.8807
3.0846 5.3295 4.8992 5.8368
3.0680 5.2863 4.8826 5.7936
3.0513 5.2425 4.8659 5.7498
3.0346 5.1987 4.8492 5.7060
3.0179 5.1528 4.8325 5.6601
3.0013 5.1084 4.8159 5.6157
2.9846 5.0653 4.7992 5.5726
2.9680 5.0215 4.7826 5.5289
2.9512 4.9778 4.7658 5.4851
2.9346 4.9352 4.7492 5.4426
2.9179 4.8905 4.7325 5.3978
2.9012 4.8484 4.7158 5.3557
2.8846 4.8047 4.6992 5.3121
2.8680 4.7616 4.6826 5.2689
2.8512 4.7202 4.6658 5.2275
2.8346 4.6775 4.6492 5.1848
2.8179 4.6369 4.6325 5.1442
2.8013 4.5962 4.6159 5.1036
2.7846 4.5539 4.5992 5.0612
2.7680 4.5137 4.5826 5.0210
2.7512 4.4724 4.5658 4.9797
2.7346 4.4307 4.5492 4.9380
2.7179 4.3901 4.5325 4.8974
2.7012 4.3485 4.5158 4.8558
2.6846 4.3080 4.4992 4.8153
2.6680 4.2674 4.4826 4.7747
2.6512 4.2266 4.4658 4.7339
2.6346 4.1870 4.4492 4.6943
2.6179 4.1480 4.4325 4.6553
2.6013 4.1084 4.4159 4.6157
2.5846 4.0705 4.3992 4.5778
2.5680 4.0307 4.3826 4.5380
2.5512 3.9922 4.3658 4.4995
2.5346 3.9531 4.3492 4.4605
2.5179 3.9138 4.3325 4.4211
2.5012 3.8750 4.3158 4.3823
2.4846 3.8379 4.2992 4.3452
2.4679 3.8006 4.2825 4.3080
2.4512 3.7633 4.2658 4.2706
2.4346 3.7273 4.2492 4.2346
2.4179 3.6895 4.2325 4.1969
2.4013 3.6533 4.2159 4.1606
2.3846 3.6168 4.1992 4.1242
2.3679 3.5795 4.1825 4.0868
2.3512 3.5426 4.1658 4.0499
2.3346 3.5059 4.1492 4.0132
2.3179 3.4693 4.1325 3.9766
2.3012 3.4336 4.1158 3.9409
2.2846 3.3973 4.0992 3.9046
2.2679 3.3609 4.0825 3.8682
2.2512 3.3252 4.0658 3.8325
2.2346 3.2890 4.0492 3.7963
2.2179 3.2529 4.0325 3.7602
2.2012 3.2156 4.0158 3.7229
2.1846 3.1803 3.9992 3.6876
2.1680 3.1448 3.9826 3.6521
2.1513 3.1100 3.9659 3.6173
2.1346 3.0747 3.9492 3.5820
2.1179 3.0394 3.9325 3.5468
2.1012 3.0039 3.9158 3.5112
2.0846 2.9690 3.8992 3.4763
2.0679 2.9327 3.8825 3.4401
2.0513 2.8987 3.8659 3.4060
2.0346 2.8632 3.8492 3.3705
2.0180 2.8281 3.8326 3.3354
2.0012 2.7937 3.8158 3.3010
1.9846 2.7610 3.7992 3.2683
1.9679 2.7262 3.7825 3.2335
1.9513 2.6931 3.7659 3.2004
1.9346 2.6592 3.7492 3.1666
1.9179 2.6252 3.7325 3.1325
1.9012 2.5904 3.7158 3.0977
1.8846 2.5561 3.6992 3.0635
1.8679 2.5217 3.6825 3.0290
1.8513 2.4890 3.6659 2.9963
1.8346 2.4550 3.6492 2.9624
1.8179 2.4217 3.6325 2.9290
1.8012 2.3874 3.6158 2.8947
1.7846 2.3556 3.5992 2.8629
1.7679 2.3231 3.5825 2.8304
1.7513 2.2916 3.5659 2.7989
1.7346 2.2582 3.5492 2.7655
1.7180 2.2265 3.5326 2.7338
1.7012 2.1945 3.5158 2.7018
1.6846 2.1627 3.4992 2.6700
1.6679 2.1307 3.4825 2.6380
1.6513 2.0988 3.4659 2.6061
1.6346 2.0671 3.4492 2.5744
1.6179 2.0351 3.4325 2.5424
1.6012 2.0040 3.4158 2.5113
1.5846 1.9724 3.3992 2.4797
1.5679 1.9418 3.3825 2.4491
1.5513 1.9103 3.3659 2.4176
1.5346 1.8784 3.3492 2.3857
1.5179 1.8479 3.3325 2.3552
1.5012 1.8158 3.3158 2.3231
1.4846 1.7869 3.2992 2.2942
1.4680 1.7563 3.2826 2.2636
1.4513 1.7267 3.2659 2.2340
1.4346 1.6972 3.2492 2.2045
1.4179 1.6671 3.2325 2.1744
1.4012 1.6361 3.2158 2.1435
1.3846 1.6069 3.1992 2.1142
1.3679 1.5761 3.1825 2.0834
1.3513 1.5477 3.1659 2.0550
1.3346 1.5170 3.1492 2.0243
1.3179 1.4876 3.1325 1.9949
1.3012 1.4592 3.1158 1.9665
1.2846 1.4293 3.0992 1.9366
1.2679 1.4003 3.0825 1.9077
1.2512 1.3722 3.0658 1.8795
1.2345 1.3432 3.0491 1.8505
1.2179 1.3149 3.0325 1.8222
1.2012 1.2862 3.0158 1.7935
1.1846 1.2586 2.9992 1.7659
1.1679 1.2319 2.9825 1.7392
1.1512 1.2041 2.9658 1.7114
1.1346 1.1770 2.9492 1.6843
1.1179 1.1497 2.9325 1.6570
1.1013 1.1218 2.9159 1.6291
1.0846 1.0946 2.8992 1.6019
1.0680 1.0676 2.8826 1.5749
1.0513 1.0403 2.8659 1.5476
1.0346 1.0131 2.8492 1.5204
1.0179 0.9867 2.8325 1.4940
1.0012 0.9586 2.8158 1.4659
0.9846 0.9318 2.7992 1.4392
0.9679 0.9055 2.7825 1.4128
0.9513 0.8788 2.7659 1.3861
0.9346 0.8521 2.7492 1.3594
0.9180 0.8261 2.7326 1.3334
0.9012 0.7993 2.7158 1.3066
0.8846 0.7737 2.6992 1.2810
0.8679 0.7470 2.6825 1.2543
0.8512 0.7217 2.6658 1.2290
0.8346 0.6951 2.6492 1.2024
0.8179 0.6694 2.6325 1.1767
0.8013 0.6443 2.6159 1.1516
0.7846 0.6192 2.5992 1.1265
0.7679 0.5945 2.5825 1.1018
0.7512 0.5693 2.5658 1.0766
0.7346 0.5440 2.5492 1.0513
0.7179 0.5191 2.5325 1.0264
0.7012 0.4939 2.5158 1.0013
0.6846 0.4700 2.4992 0.9773
0.6679 0.4470 2.4825 0.9543
0.6513 0.4229 2.4659 0.9302
0.6346 0.3989 2.4492 0.9062
0.6179 0.3752 2.4325 0.8825
0.6012 0.3526 2.4158 0.8599
0.5846 0.3301 2.3992 0.8374
0.5680 0.3088 2.3826 0.8161
0.5512 0.2867 2.3658 0.7940
0.5346 0.2661 2.3492 0.7734
0.5179 0.2452 2.3325 0.7525
0.5012 0.2242 2.3158 0.7315
0.4846 0.2051 2.2992 0.7124
0.4679 0.1859 2.2825 0.6932
0.4512 0.1657 2.2658 0.6730
0.4346 0.1473 2.2492 0.6546
0.4179 0.1271 2.2325 0.6344
0.4013 0.1085 2.2159 0.6159
0.3846 0.0902 2.1992 0.5975
0.3680 0.0724 2.1826 0.5797
0.3512 0.0555 2.1658 0.5628
0.3346 0.0394 2.1492 0.5467
0.3179 0.0226 2.1325 0.5299
0.3013 0.0074 2.1159 0.5147
0.2846 -0.0079 2.0992 0.4994
0.2680 -0.0237 2.0826 0.4836
0.2512 -0.0392 2.0658 0.4681
0.2346 -0.0542 2.0492 0.4531
0.2179 -0.0697 2.0325 0.4376
0.2012 -0.0850 2.0158 0.4223
0.1846 -0.0993 1.9992 0.4080
0.1751 -0.1073 1.9897 0.4000
0.1751 -0.1074 1.9897 0.3999
0.1908 -0.0960 2.0054 0.4113
0.2083 -0.0645 2.0229 0.4428
0.2250 -0.0304 2.0396 0.4769
0.2418 0.0017 2.0564 0.5090
0.2584 0.0330 2.0730 0.5404
0.2750 0.0639 2.0896 0.5712
0.2917 0.0957 2.1063 0.6030
0.3084 0.1300 2.1230 0.6373
0.3251 0.1634 2.1397 0.6707
0.3418 0.1961 2.1564 0.7034
0.3584 0.2275 2.1730 0.7348
0.3751 0.2588 2.1897 0.7661
0.3918 0.2922 2.2064 0.7995
0.4084 0.3267 2.2230 0.8340
0.4250 0.3621 2.2396 0.8694
0.4417 0.3966 2.2563 0.9039
0.4584 0.4300 2.2730 0.9373
0.4751 0.4652 2.2897 0.9725
0.4918 0.5029 2.3064 1.0102
0.5084 0.5401 2.3230 1.0474
0.5251 0.5767 2.3397 1.0840
0.5418 0.6152 2.3564 1.1225
0.5584 0.6534 2.3730 1.1607
0.5751 0.6922 2.3897 1.1995
0.5918 0.7302 2.4064 1.2375
0.6084 0.7685 2.4230 1.2758
0.6251 0.8072 2.4397 1.3145
0.6418 0.8459 2.4564 1.3532
0.6584 0.8843 2.4730 1.3917
0.6751 0.9245 2.4897 1.4318
0.6917 0.9633 2.5063 1.4706
0.7084 1.0024 2.5230 1.5097
0.7251 1.0419 2.5397 1.5492
0.7418 1.0820 2.5564 1.5893
0.7584 1.1214 2.5730 1.6287
0.7751 1.1600 2.5897 1.6673
0.7917 1.1991 2.6063 1.7064
0.8084 1.2391 2.6230 1.7465
0.8250 1.2793 2.6396 1.7866
0.8418 1.3222 2.6564 1.8295
0.8584 1.3643 2.6730 1.8716
0.8751 1.4055 2.6897 1.9128
0.8918 1.4478 2.7064 1.9551
0.9084 1.4901 2.7230 1.9974
0.9251 1.5326 2.7397 2.0399
0.9417 1.5755 2.7563 2.0828
0.9584 1.6178 2.7730 2.1252
0.9751 1.6628 2.7897 2.1701
0.9917 1.7057 2.8063 2.2130
1.0084 1.7503 2.8230 2.2576
1.0250 1.7941 2.8396 2.3014
1.0418 1.8369 2.8564 2.3442
1.0584 1.8794 2.8730 2.3867
1.0751 1.9228 2.8897 2.4301
1.0917 1.9647 2.9063 2.4720
1.1084 2.0072 2.9230 2.5145
1.1250 2.0506 2.9396 2.5579
1.1418 2.0936 2.9564 2.6009
1.1584 2.1374 2.9730 2.6447
1.1751 2.1808 2.9897 2.6881
1.1917 2.2241 3.0063 2.7314
1.2084 2.2664 3.0230 2.7738
1.2250 2.3089 3.0396 2.8162
1.2417 2.3527 3.0563 2.8600
1.2584 2.3954 3.0730 2.9027
1.2751 2.4393 3.0897 2.9467
1.2917 2.4823 3.1063 2.9896
1.3084 2.5267 3.1230 3.0340
1.3250 2.5714 3.1396 3.0787
1.3418 2.6162 3.1564 3.1235
1.3584 2.6606 3.1730 3.1680
1.3751 2.7043 3.1897 3.2116
1.3917 2.7483 3.2063 3.2556
1.4084 2.7920 3.2230 3.2993
1.4251 2.8355 3.2397 3.3428
1.4418 2.8805 3.2564 3.3878
1.4584 2.9239 3.2730 3.4312
1.4751 2.9687 3.2897 3.4760
1.4917 3.0124 3.3063 3.5197
1.5084 3.0563 3.3230 3.5636
1.5251 3.1023 3.3397 3.6096
1.5418 3.1466 3.3564 3.6540
1.5584 3.1908 3.3730 3.6981
1.5751 3.2360 3.3897 3.7433
1.5918 3.2805 3.4064 3.7878
1.6084 3.3243 3.4230 3.8316
1.6251 3.3689 3.4397 3.8763
1.6417 3.4139 3.4563 3.9212
1.6584 3.4611 3.4730 3.9684
1.6751 3.5065 3.4897 4.0138
1.6918 3.5539 3.5064 4.0612
1.7084 3.6014 3.5230 4.1087
1.7251 3.6489 3.5397 4.1562
1.7417 3.6951 3.5563 4.2024
1.7584 3.7434 3.5730 4.2507
1.7750 3.7906 3.5896 4.2979
1.7917 3.8404 3.6063 4.3477
1.8084 3.8895 3.6230 4.3968
1.8251 3.9389 3.6397 4.4462
1.8418 3.9889 3.6564 4.4962
1.8584 4.0381 3.6730 4.5455
1.8751 4.0878 3.6897 4.5951
1.8918 4.1371 3.7064 4.6444
1.9084 4.1852 3.7230 4.6925
1.9251 4.2345 3.7397 4.7418
1.9418 4.2848 3.7564 4.7921
1.9584 4.3346 3.7730 4.8419
1.9751 4.3853 3.7897 4.8926
1.9918 4.4351 3.8064 4.9424
2.0084 4.4846 3.8230 4.9919
2.0251 4.5356 3.8397 5.0429
2.0417 4.5853 3.8563 5.0926
2.0584 4.6357 3.8730 5.1430
2.0751 4.6858 3.8897 5.1931
2.0918 4.7353 3.9064 5.2426
2.1084 4.7864 3.9230 5.2937
2.1251 4.8374 3.9397 5.3447
2.1417 4.8884 3.9563 5.3957
2.1584 4.9405 3.9730 5.4478
2.1751 4.9906 3.9897 5.4979
2.1917 5.0407 4.0063 5.5480
2.2084 5.0919 4.0230 5.5992
2.2251 5.1418 4.0397 5.6491
2.2418 5.1928 4.0564 5.7001
2.2585 5.2439 4.0731 5.7512
2.2751 5.2933 4.0897 5.8006
2.2917 5.3439 4.1063 5.8512
2.3084 5.3947 4.1230 5.9020
2.3251 5.4473 4.1397 5.9546
2.3417 5.4984 4.1563 6.0058
2.3585 5.5502 4.1731 6.0575
2.3751 5.6002 4.1897 6.1075
2.3918 5.6518 4.2064 6.1591
2.4084 5.7004 4.2230 6.2077
2.4250 5.7501 4.2396 6.2574
2.4417 5.8008 4.2563 6.3081
2.4584 5.8511 4.2730 6.3584
2.4750 5.9030 4.2896 6.4103
2.4918 5.9548 4.3064 6.4621
2.5084 6.0051 4.3230 6.5124
2.5251 6.0585 4.3397 6.5658
2.5418 6.1082 4.3564 6.6155
2.5584 6.1599 4.3730 6.6672
2.5751 6.2109 4.3897 6.7182
2.5917 6.2612 4.4063 6.7685
2.6084 6.3118 4.4230 6.8192
2.6251 6.3631 4.4397 6.8704
2.6418 6.4144 4.4564 6.9217
2.6584 6.4666 4.4730 6.9739
2.6751 6.5164 4.4897 7.0237
2.6917 6.5686 4.5063 7.0759
2.7084 6.6210 4.5230 7.1283
2.7251 6.6721 4.5397 7.1794
2.7417 6.7242 4.5563 7.2315
2.7585 6.7766 4.5731 7.2839
2.7751 6.8266 4.5897 7.3339
2.7917 6.8782 4.6063 7.3855
2.8084 6.9295 4.6230 7.4368
2.8251 6.9810 4.6397 7.4883
2.8418 7.0333 4.6564 7.5406
2.8584 7.0834 4.6730 7.5907
2.8750 7.1340 4.6896 7.6413
2.8918 7.1865 4.7064 7.6938
2.9084 7.2370 4.7230 7.7443
2.9251 7.2894 4.7397 7.7967
2.9418 7.3402 4.7564 7.8475
2.9584 7.3931 4.7730 7.9004
2.9751 7.4456 4.7897 7.9529
2.9918 7.4959 4.8064 8.0032
3.0084 7.5469 4.8230 8.0542
3.0251 7.5992 4.8397 8.1065
3.0418 7.6509 4.8564 8.1583
3.0584 7.7017 4.8730 8.2090
3.0751 7.7512 4.8897 8.2585
3.0918 7.8010 4.9064 8.3084
3.1084 7.8520 4.9230 8.3593
3.1251 7.9031 4.9397 8.4104
3.1417 7.9539 4.9563 8.4612
3.1585 8.0073 4.9731 8.5146
3.1751 8.0579 4.9897 8.5653
3.1918 8.1091 5.0064 8.6164
3.2084 8.1594 5.0230 8.6668
3.2251 8.2090 5.0397 8.7163
3.2417 8.2593 5.0563 8.7666
3.2584 8.3090 5.0730 8.8163
3.2750 8.3585 5.0896 8.8658
3.2918 8.4099 5.1064 8.9173
3.3084 8.4600 5.1230 8.9673
3.3251 8.5100 5.1397 9.0173
3.3418 8.5594 5.1564 9.0667
3.3584 8.6080 5.1730 9.1153
3.3751 8.6569 5.1897 9.1642
3.3917 8.7053 5.2063 9.2127
3.4084 8.7525 5.2230 9.2598
3.4251 8.8007 5.2397 9.3080
3.4418 8.8485 5.2564 9.3558
3.4584 8.8958 5.2730 9.4031
3.4751 8.9445 5.2897 9.4518
3.4918 8.9920 5.3064 9.4993
3.5084 9.0397 5.3230 9.5470
3.5251 9.0894 5.3397 9.5967
3.5417 9.1367 5.3563 9.6441
3.5584 9.1854 5.3730 9.6927
3.5751 9.2345 5.3897 9.7418
3.5918 9.2822 5.4064 9.7895
3.6084 9.3393 5.4230 9.8466
3.6251 9.4006 5.4397 9.9079
3.6418 9.4621 5.4564 9.9694
3.6584 9.5263 5.4730 10.0336
3.6751 9.5882 5.4897 10.0955
3.6917 9.6500 5.5063 10.1573
3.7084 9.7146 5.5230 10.2219
3.7251 9.7769 5.5397 10.2842
3.7418 9.8405 5.5564 10.3478
3.7584 9.9042 5.5730 10.4115
3.7751 9.9685 5.5897 10.4759
3.7917 10.0343 5.6063 10.5416
3.8084 10.1018 5.6230 10.6091
3.8251 10.1705 5.6397 10.6778
3.8418 10.2407 5.6564 10.7480
3.8585 10.3081 5.6731 10.8154
3.8751 10.3764 5.6897 10.8837
3.8918 10.4459 5.7064 10.9532
3.9084 10.5147 5.7230 11.0220
3.9250 10.5850 5.7396 11.0923
3.9418 10.6560 5.7564 11.1633
3.9584 10.7271 5.7730 11.2344
3.9751 10.8077 5.7897 11.3150
3.9918 10.8907 5.8064 11.3980
4.0085 10.9793 5.8231 11.4866
4.0251 11.0684 5.8397 11.5757
4.0418 11.1585 5.8564 11.6658
4.0584 11.2490 5.8730 11.7563
4.0751 11.3425 5.8897 11.8499
4.0917 11.4334 5.9063 11.9408
4.1084 11.5300 5.9230 12.0373
4.1251 11.6279 5.9397 12.1353
4.1418 11.7281 5.9564 12.2355
4.1584 11.8302 5.9730 12.3375
4.1751 11.9323 5.9897 12.4397
4.1917 12.0347 6.0063 12.5420
4.2084 12.1387 6.0230 12.6460
4.2250 12.2415 6.0396 12.7488
4.2418 12.3486 6.0564 12.8559
4.2584 12.4553 6.0730 12.9627
4.2751 12.5655 6.0897 13.0728
4.2917 12.6769 6.1063 13.1842
4.3084 12.7895 6.1230 13.2968
4.3250 12.9035 6.1396 13.4108
4.3418 13.0177 6.1564 13.5250
4.3584 13.1308 6.1730 13.6381
4.3751 13.2529 6.1897 13.7603
4.3918 13.3795 6.2064 13.8868
4.4084 13.5068 6.2230 14.0141
4.4251 13.6369 6.2397 14.1442
4.4417 13.7684 6.2563 14.2757
4.4584 13.9002 6.2730 14.4075
4.4751 14.0369 6.2897 14.5442
4.4917 14.1742 6.3063 14.6816
4.5084 14.3133 6.3230 14.8206
4.5251 14.4563 6.3397 14.9636
4.5418 14.5979 6.3564 15.1052
4.5584 14.7402 6.3730 15.2475
4.5751 14.8854 6.3897 15.3928
4.5917 15.0292 6.4063 15.5365
4.6084 15.1791 6.4230 15.6864
4.6250 15.3313 6.4396 15.8386
4.6418 15.4939 6.4564 16.0013
4.6584 15.6653 6.4730 16.1726
4.6751 15.8366 6.4897 16.3439
4.6917 16.0113 6.5063 16.5186
4.7084 16.1928 6.5230 16.7001
4.7251 16.3723 6.5397 16.8796
4.7417 16.5568 6.5563 17.0641
4.7584 16.7446 6.5730 17.2520
4.7751 16.9374 6.5897 17.4447
4.7918 17.1338 6.6064 17.6411
4.8084 17.3343 6.6230 17.8416
4.8251 17.5398 6.6397 18.0471
4.8418 17.7538 6.6564 18.2611
4.8584 17.9684 6.6730 18.4757
4.8750 18.1889 6.6896 18.6962
4.8917 18.4161 6.7063 18.9234
4.9084 18.6478 6.7230 19.1552
4.9250 18.8866 6.7396 19.3939
4.9418 19.1295 6.7564 19.6368
4.9584 19.3694 6.7730 19.8768
4.9667 19.4928 6.7813 20.0001
4.9667 19.4934 6.7813 20.0007
4.9508 19.3096 6.7654 19.8170
4.9404 19.0593 6.7550 19.5666
4.9307 18.8089 6.7453 19.3162
4.9206 18.5588 6.7352 19.0661
4.9102 18.3085 6.7248 18.8158
4.8993 18.0585 6.7139 18.5658
4.8880 17.8081 6.7026 18.3154
4.8764 17.5575 6.6910 18.0648
4.8645 17.3069 6.6791 17.8142
4.8519 17.0565 6.6665 17.5638
4.8390 16.8060 6.6536 17.3134
4.8258 16.5558 6.6404 17.0631
4.8120 16.3056 6.6266 16.8129
4.7976 16.0551 6.6122 16.5624
4.7831 15.8049 6.5977 16.3122
4.7680 15.5546 6.5826 16.0620
4.7523 15.3045 6.5669 15.8118
4.7364 15.0544 6.5510 15.5617
4.7199 14.8042 6.5345 15.3115
4.7033 14.5537 6.5179 15.0610
4.6866 14.3065 6.5012 14.8138
4.6700 14.0691 6.4846 14.5764
4.6533 13.8340 6.4679 14.3413
4.6366 13.6050 6.4512 14.1123
4.6199 13.3832 6.4345 13.8905
4.6032 13.1735 6.4178 13.6808
4.5866 12.9730 6.4012 13.4803
4.5700 12.7771 6.3846 13.2844
4.5533 12.5799 6.3679 13.0872
4.5366 12.3868 6.3512 12.8942
4.5199 12.1935 6.3345 12.7009
4.5033 12.0060 6.3179 12.5133
4.4866 11.8241 6.3012 12.3314
4.4699 11.6456 6.2845 12.1529
4.4532 11.4704 6.2678 11.9778
4.4366 11.3007 6.2512 11.8081
4.4199 11.1318 6.2345 11.6391
4.4033 10.9694 6.2179 11.4767
4.3866 10.8127 6.2012 11.3200
4.3700 10.6617 6.1846 11.1690
4.3532 10.5149 6.1678 11.0222
4.3366 10.3731 6.1512 10.8804
4.3199 10.2340 6.1345 10.7413
4.3033 10.0995 6.1179 10.6068
4.2866 9.9647 6.1012 10.4721
4.2700 9.8359 6.0846 10.3432
4.2532 9.7074 6.0678 10.2147
4.2366 9.5814 6.0512 10.0887
4.2199 9.4582 6.0345 9.9655
4.2033 9.3430 6.0179 9.8503
4.1866 9.2309 6.0012 9.7382
4.1700 9.1253 5.9846 9.6326
4.1532 9.0189 5.9678 9.5263
4.1366 8.9180 5.9512 9.4253
4.1199 8.8171 5.9345 9.3244
4.1032 8.7196 5.9178 9.2269
4.0866 8.6251 5.9012 9.1324
4.0700 8.5328 5.8846 9.0401
4.0532 8.4399 5.8678 8.9472
4.0366 8.3529 5.8512 8.8602
4.0199 8.2646 5.8345 8.7719
4.0033 8.1803 5.8179 8.6876
3.9866 8.0966 5.8012 8.6039
3.9699 8.0153 5.7845 8.5226
3.9532 7.9370 5.7678 8.4443
3.9366 7.8641 5.7512 8.3714
3.9199 7.7913 5.7345 8.2986
3.9033 7.7210 5.7179 8.2283
3.8866 7.6502 5.7012 8.1575
3.8700 7.5796 5.6846 8.0869
3.8532 7.5110 5.6678 8.0183
3.8366 7.4419 5.6512 7.9492
3.8199 7.3732 5.6345 7.8805
3.8033 7.3079 5.6179 7.8152
3.7866 7.2424 5.6012 7.7497
3.7699 7.1781 5.5845 7.6854
3.7532 7.1161 5.5678 7.6234
3.7366 7.0526 5.5512 7.5599
3.7199 6.9913 5.5345 7.4986
3.7033 6.9296 5.5179 7.4369
3.6866 6.8676 5.5012 7.3749
3.6700 6.8096 5.4846 7.3169
3.6532 6.7495 5.4678 7.2568
3.6366 6.6905 5.4512 7.1978
3.6199 6.6334 5.4345 7.1408
3.6032 6.5767 5.4178 7.0840
3.5866 6.5260 5.4012 7.0333
3.5699 6.4761 5.3845 6.9834
3.5532 6.4245 5.3678 6.9318
3.5366 6.3756 5.3512 6.8829
3.5199 6.3243 5.3345 6.8316
3.5033 6.2750 5.3179 6.7823
3.4866 6.2264 5.3012 6.7337
3.4699 6.1779 5.2845 6.6852
3.4532 6.1288 5.2678 6.6361
3.4366 6.0814 5.2512 6.5887
3.4199 6.0324 5.2345 6.5397
3.4032 5.9855 5.2178 6.4928
3.3866 5.9368 5.2012 6.4441
3.3699 5.8895 5.1845 6.3968
3.3533 5.8417 5.1679 6.3490
3.3366 5.7933 5.1512 6.3006
3.3199 5.7460 5.1345 6.2533
3.3032 5.6996 5.1178 6.2069
3.2866 5.6528 5.1012 6.1601
3.2699 5.6065 5.0845 6.1138
3.2532 5.5615 5.0678 6.0688
3.2366 5.5136 5.0512 6.0209
3.2200 5.4680 5.0346 5.9753
3.2032 5.4214 5.0178 5.9287
3.1866 5.3748 5.0012 5.8821
3.1699 5.3301 4.9845 5.8374
3.1532 5.2835 4.9678 5.7908
3.1365 5.2379 4.9511 5.7452
3.1199 5.1928 4.9345 5.7001
3.1032 5.1485 4.9178 5.6558
3.0866 5.1050 4.9012 5.6123
3.0699 5.0617 4.8845 5.5690
3.0533 5.0166 4.8679 5.5239
3.0366 4.9737 4.8512 5.4810
3.0199 4.9284 4.8345 5.4357
3.0032 4.8832 4.8178 5.3906
2.9866 4.8404 4.8012 5.3477
2.9699 4.7972 4.7845 5.3045
2.9533 4.7543 4.7679 5.2616
2.9366 4.7120 4.7512 5.2193
2.9199 4.6696 4.7345 5.1769
2.9032 4.6266 4.7178 5.1339
2.8866 4.5845 4.7012 5.0918
2.8699 4.5413 4.6845 5.0486
2.8533 4.4995 4.6679 5.0068
2.8366 4.4579 4.6512 4.9652
2.8200 4.4165 4.6346 4.9238
2.8033 4.3768 4.6179 4.8842
2.7866 4.3349 4.6012 4.8422
2.7700 4.2944 4.5846 4.8017
2.7533 4.2534 4.5679 4.7607
2.7366 4.2110 4.5512 4.7184
2.7199 4.1715 4.5345 4.6788
2.7033 4.1302 4.5179 4.6375
2.6866 4.0896 4.5012 4.5969
2.6699 4.0492 4.4845 4.5565
2.6533 4.0094 4.4679 4.5167
2.6365 3.9706 4.4511 4.4779
2.6199 3.9321 4.4345 4.4394
2.6032 3.8929 4.4178 4.4002
2.5866 3.8551 4.4012 4.3625
2.5699 3.8163 4.3845 4.3236
2.5533 3.7776 4.3679 4.2849
2.5366 3.7397 4.3512 4.2471
2.5199 3.7012 4.3345 4.2085
2.5032 3.6618 4.3178 4.1691
2.4866 3.6255 4.3012 4.1328
2.4699 3.5883 4.2845 4.0956
2.4532 3.5514 4.2678 4.0587
2.4366 3.5153 4.2512 4.0226
2.4200 3.4782 4.2346 3.9855
2.4033 3.4429 4.2179 3.9502
2.3866 3.4050 4.2012 3.9123
2.3699 3.3693 4.1845 3.8766
2.3532 3.3326 4.1678 3.8399
2.3366 3.2960 4.1512 3.8033
2.3199 3.2599 4.1345 3.7672
2.3032 3.2239 4.1178 3.7312
2.2866 3.1883 4.1012 3.6956
2.2699 3.1520 4.0845 3.6593
2.2532 3.1169 4.0678 3.6242
2.2366 3.0810 4.0512 3.5883
2.2199 3.0450 4.0345 3.5523
2.2033 3.0086 4.0179 3.5159
2.1866 2.9733 4.0012 3.4806
2.1699 2.9384 3.9845 3.4457
2.1533 2.9035 3.9679 3.4108
2.1366 2.8674 3.9512 3.3747
2.1199 2.8338 3.9345 3.3411
2.1032 2.7983 3.9178 3.3056
2.0866 2.7638 3.9012 3.2711
2.0699 2.7287 3.8845 3.2360
2.0532 2.6936 3.8678 3.2009
2.0366 2.6599 3.8512 3.1673
2.0200 2.6240 3.8346 3.1313
2.0033 2.5899 3.8179 3.0972
1.9866 2.5564 3.8012 3.0637
1.9699 2.5223 3.7845 3.0296
1.9532 2.4891 3.7678 2.9964
1.9366 2.4558 3.7512 2.9632
1.9199 2.4226 3.7345 2.9299
1.9032 2.3885 3.7178 2.8958
1.8866 2.3558 3.7012 2.8631
1.8700 2.3220 3.6846 2.8293
1.8532 2.2896 3.6678 2.7969
1.8366 2.2559 3.6512 2.7632
1.8199 2.2229 3.6345 2.7303
1.8032 2.1899 3.6178 2.6972
1.7866 2.1572 3.6012 2.6645
1.7699 2.1264 3.5845 2.6337
1.7532 2.0932 3.5678 2.6006
1.7366 2.0608 3.5512 2.5681
1.7199 2.0287 3.5345 2.5360
1.7033 1.9968 3.5179 2.5041
1.6866 1.9649 3.5012 2.4722
1.6699 1.9336 3.4845 2.4409
1.6532 1.9017 3.4678 2.4091
1.6366 1.8706 3.4512 2.3779
1.6199 1.8396 3.4345 2.3469
1.6033 1.8079 3.4179 2.3153
1.5866 1.7777 3.4012 2.2850
1.5700 1.7474 3.3846 2.2547
1.5532 1.7159 3.3678 2.2232
1.5366 1.6859 3.3512 2.1932
1.5198 1.6546 3.3344 2.1619
1.5032 1.6244 3.3178 2.1317
1.4866 1.5949 3.3012 2.1022
1.4700 1.5658 3.2846 2.0731
1.4532 1.5361 3.2678 2.0434
1.4366 1.5078 3.2512 2.0151
1.4199 1.4777 3.2345 1.9850
1.4032 1.4475 3.2178 1.9548
1.3866 1.4186 3.2012 1.9259
1.3699 1.3882 3.1845 1.8955
1.3532 1.3600 3.1678 1.8673
1.3366 1.3312 3.1512 1.8385
1.3199 1.3028 3.1345 1.8101
1.3033 1.2755 3.1179 1.7828
1.2866 1.2476 3.1012 1.7549
1.2700 1.2195 3.0846 1.7268
1.2532 1.1921 3.0678 1.6994
1.2366 1.1632 3.0512 1.6705
1.2199 1.1348 3.0345 1.6421
1.2033 1.1075 3.0179 1.6148
1.1866 1.0805 3.0012 1.5878
1.1700 1.0536 2.9846 1.5609
1.1532 1.0262 2.9678 1.5335
1.1366 0.9979 2.9512 1.5052
1.1199 0.9711 2.9345 1.4784
1.1033 0.9438 2.9179 1.4511
1.0866 0.9175 2.9012 1.4249
1.0700 0.8904 2.8846 1.3977
1.0533 0.8640 2.8679 1.3713
1.0366 0.8375 2.8512 1.3448
1.0199 0.8114 2.8345 1.3187
1.0033 0.7835 2.8179 1.2908
0.9866 0.7577 2.8012 1.2650
0.9700 0.7303 2.7846 1.2376
0.9532 0.7045 2.7678 1.2118
0.9366 0.6778 2.7512 1.1851
0.9200 0.6527 2.7346 1.1600
0.9033 0.6272 2.7179 1.1345
0.8866 0.6011 2.7012 1.1084
0.8699 0.5761 2.6845 1.0834
0.8532 0.5509 2.6678 1.0582
0.8366 0.5256 2.6512 1.0329
0.8199 0.5009 2.6345 1.0082
0.8032 0.4763 2.6178 0.9836
0.7866 0.4521 2.6012 0.9594
0.7699 0.4277 2.5845 0.9350
0.7532 0.4043 2.5678 0.9116
0.7366 0.3804 2.5512 0.8877
0.7199 0.3565 2.5345 0.8638
0.7032 0.3329 2.5178 0.8402
0.6866 0.3100 2.5012 0.8173
0.6699 0.2876 2.4845 0.7950
0.6533 0.2654 2.4679 0.7727
0.6366 0.2444 2.4512 0.7517
0.6199 0.2231 2.4345 0.7304
0.6032 0.2026 2.4178 0.7099
0.5866 0.1829 2.4012 0.6902
0.5699 0.1638 2.3845 0.6711
0.5532 0.1441 2.3678 0.6514
0.5366 0.1247 2.3512 0.6320
0.5199 0.1053 2.3345 0.6126
0.5032 0.0871 2.3178 0.5944
0.4866 0.0702 2.3012 0.5775
0.4699 0.0531 2.2845 0.5604
0.4532 0.0364 2.2678 0.5437
0.4366 0.0201 2.2512 0.5275
0.4199 0.0042 2.2345 0.5115
0.4033 -0.0120 2.2179 0.4953
0.3866 -0.0277 2.2012 0.4796
0.3699 -0.0431 2.1845 0.4642
0.3532 -0.0586 2.1678 0.4487
0.3366 -0.0734 2.1512 0.4339
0.3199 -0.0880 2.1345 0.4193
0.3032 -0.1025 2.1178 0.4048
0.2967 -0.1073 2.1113 0.4000
0.2966 -0.1074 2.1112 0.3999
0.3125 -0.0961 2.1271 0.4112
0.3298 -0.0656 2.1444 0.4417
0.3466 -0.0322 2.1612 0.4752
0.3633 0.0008 2.1779 0.5081
0.3800 0.0326 2.1946 0.5399
0.3967 0.0650 2.2113 0.5723
0.4133 0.0972 2.2279 0.6045
0.4300 0.1318 2.2446 0.6391
0.4466 0.1653 2.2612 0.6726
0.4634 0.1969 2.2780 0.7042
0.4800 0.2299 2.2946 0.7372
0.4967 0.2642 2.3113 0.7716
0.5133 0.2984 2.3279 0.8058
0.5300 0.3341 2.3446 0.8414
0.5466 0.3706 2.3612 0.8779
0.5633 0.4060 2.3779 0.9133
0.5800 0.4402 2.3946 0.9475
0.5967 0.4761 2.4113 0.9834
0.6133 0.5131 2.4279 1.0204
0.6300 0.5502 2.4446 1.0575
0.6466 0.5882 2.4612 1.0955
0.6633 0.6270 2.4779 1.1343
0.6799 0.6652 2.4945 1.1726
0.6966 0.7048 2.5112 1.2121
0.7133 0.7436 2.5279 1.2509
0.7300 0.7827 2.5446 1.2900
0.7466 0.8222 2.5612 1.3295
0.7634 0.8617 2.5780 1.3690
0.7800 0.9000 2.5946 1.4073
0.7966 0.9395 2.6112 1.4468
0.8133 0.9783 2.6279 1.4856
0.8300 1.0188 2.6446 1.5261
0.8466 1.0593 2.6612 1.5666
0.8634 1.0991 2.6780 1.6064
0.8800 1.1393 2.6946 1.6466
0.8967 1.1792 2.7113 1.6865
0.9133 1.2194 2.7279 1.7268
0.9300 1.2601 2.7446 1.7674
0.9466 1.3015 2.7612 1.8088
0.9633 1.3430 2.7779 1.8503
0.9800 1.3868 2.7946 1.8941
0.9967 1.4306 2.8113 1.9379
1.0133 1.4743 2.8279 1.9816
1.0300 1.5182 2.8446 2.0255
1.0466 1.5607 2.8612 2.0680
1.0633 1.6039 2.8779 2.1112
1.0800 1.6465 2.8946 2.1538
1.0966 1.6897 2.9112 2.1970
1.1133 1.7319 2.9279 2.2392
1.1300 1.7761 2.9446 2.2834
1.1466 1.8182 2.9612 2.3255
1.1634 1.8629 2.9780 2.3702
1.1800 1.9060 2.9946 2.4133
1.1966 1.9488 3.0112 2.4561
1.2133 1.9919 3.0279 2.4992
1.2300 2.0338 3.0446 2.5412
1.2466 2.0777 3.0612 2.5850
1.2634 2.1217 3.0780 2.6290
1.2800 2.1652 3.0946 2.6725
1.2966 2.2075 3.1112 2.7148
1.3133 2.2517 3.1279 2.7590
1.3300 2.2942 3.1446 2.8016
1.3466 2.3390 3.1612 2.8463
1.3633 2.3825 3.1779 2.8898
1.3799 2.4262 3.1945 2.9335
1.3967 2.4707 3.2113 2.9780
1.4133 2.5138 3.2279 3.0212
1.4300 2.5585 3.2446 3.0658
1.4467 2.6034 3.2613 3.1107
1.4633 2.6472 3.2779 3.1546
1.4799 2.6909 3.2945 3.1982
1.4966 2.7356 3.3112 3.2429
1.5133 2.7793 3.3279 3.2866
1.5300 2.8248 3.3446 3.3321
1.5467 2.8694 3.3613 3.3767
1.5634 2.9136 3.3780 3.4209
1.5800 2.9578 3.3946 3.4651
1.5966 3.0017 3.4112 3.5090
1.6133 3.0466 3.4279 3.5539
1.6300 3.0908 3.4446 3.5981
1.6466 3.1360 3.4612 3.6433
1.6633 3.1828 3.4779 3.6902
1.6800 3.2274 3.4946 3.7347
1.6966 3.2736 3.5112 3.7810
1.7134 3.3195 3.5280 3.8268
1.7300 3.3646 3.5446 3.8719
1.7466 3.4107 3.5612 3.9180
1.7633 3.4570 3.5779 3.9643
1.7800 3.5051 3.5946 4.0124
1.7966 3.5540 3.6112 4.0613
1.8134 3.6027 3.6280 4.1100
1.8300 3.6518 3.6446 4.1591
1.8467 3.7021 3.6613 4.2094
1.8634 3.7513 3.6780 4.2586
1.8800 3.8004 3.6946 4.3077
1.8966 3.8497 3.7112 4.3570
1.9133 3.8984 3.7279 4.4057
1.9300 3.9473 3.7446 4.4546
1.9467 3.9967 3.7613 4.5040
1.9633 4.0463 3.7779 4.5536
1.9800 4.0963 3.7946 4.6037
1.9966 4.1457 3.8112 4.6530
2.0133 4.1964 3.8279 4.7037
2.0300 4.2464 3.8446 4.7537
2.0466 4.2967 3.8612 4.8040
2.0633 4.3483 3.8779 4.8556
2.0800 4.3977 3.8946 4.9050
2.0967 4.4479 3.9113 4.9552
2.1134 4.4994 3.9280 5.0067
2.1300 4.5499 3.9446 5.0572
2.1466 4.6015 3.9612 5.1089
2.1633 4.6532 3.9779 5.1605
2.1800 4.7038 3.9946 5.2111
2.1966 4.7545 4.0112 5.2618
2.2134 4.8059 4.0280 5.3132
2.2300 4.8556 4.0446 5.3629
2.2467 4.9061 4.0613 5.4135
2.2633 4.9561 4.0779 5.4634
2.2800 5.0060 4.0946 5.5133
2.2966 5.0580 4.1112 5.5653
2.3133 5.1092 4.1279 5.6165
2.3300 5.1610 4.1446 5.6683
2.3467 5.2133 4.1613 5.7206
2.3634 5.2627 4.1780 5.7700
2.3800 5.3147 4.1946 5.8220
2.3967 5.3652 4.2113 5.8725
2.4133 5.4157 4.2279 5.9231
2.4299 5.4665 4.2445 5.9738
2.4466 5.5168 4.2612 6.0241
2.4633 5.5680 4.2779 6.0753
2.4800 5.6194 4.2946 6.1267
2.4967 5.6700 4.3113 6.1773
2.5133 5.7210 4.3279 6.2283
2.5300 5.7735 4.3446 6.2808
2.5467 5.8243 4.3613 6.3317
2.5633 5.8756 4.3779 6.3830
2.5800 5.9274 4.3946 6.4347
2.5966 5.9777 4.4112 6.4850
2.6133 6.0295 4.4279 6.5368
2.6300 6.0799 4.4446 6.5873
2.6467 6.1317 4.4613 6.6390
2.6633 6.1830 4.4779 6.6903
2.6800 6.2348 4.4946 6.7421
2.6966 6.2877 4.5112 6.7950
2.7133 6.3399 4.5279 6.8473
2.7299 6.3906 4.5445 6.8979
2.7467 6.4445 4.5613 6.9518
2.7634 6.4949 4.5780 7.0022
2.7800 6.5457 4.5946 7.0530
2.7966 6.5980 4.6112 7.1053
2.8133 6.6499 4.6279 7.1572
2.8300 6.7016 4.6446 7.2090
2.8466 6.7533 4.6612 7.2606
2.8632 6.8040 4.6778 7.3113
2.8800 6.8563 4.6946 7.3637
2.8967 6.9073 4.7113 7.4146
2.9133 6.9590 4.7279 7.4663
2.9300 7.0106 4.7446 7.5180
2.9467 7.0632 4.7613 7.5705
2.9633 7.1147 4.7779 7.6220
2.9800 7.1668 4.7946 7.6741
2.9966 7.2187 4.8112 7.7260
3.0134 7.2708 4.8280 7.7781
3.0300 7.3240 4.8446 7.8313
3.0467 7.3747 4.8613 7.8820
3.0633 7.4261 4.8779 7.9334
3.0800 7.4767 4.8946 7.9840
3.0966 7.5267 4.9112 8.0340
3.1133 7.5777 4.9279 8.0850
3.1299 7.6282 4.9445 8.1356
3.1467 7.6810 4.9613 8.1883
3.1634 7.7330 4.9780 8.2403
3.1800 7.7852 4.9946 8.2925
3.1966 7.8365 5.0112 8.3438
3.2133 7.8878 5.0279 8.3951
3.2300 7.9370 5.0446 8.4444
3.2466 7.9882 5.0612 8.4956
3.2633 8.0379 5.0779 8.5453
3.2800 8.0888 5.0946 8.5961
3.2967 8.1401 5.1113 8.6474
3.3134 8.1908 5.1280 8.6981
3.3300 8.2408 5.1446 8.7481
3.3466 8.2909 5.1612 8.7983
3.3633 8.3400 5.1779 8.8474
3.3800 8.3891 5.1946 8.8964
3.3966 8.4375 5.2112 8.9448
3.4133 8.4854 5.2279 8.9927
3.4300 8.5345 5.2446 9.0418
3.4467 8.5818 5.2613 9.0891
3.4633 8.6302 5.2779 9.1375
3.4800 8.6800 5.2946 9.1873
3.4967 8.7289 5.3113 9.2362
3.5133 8.7775 5.3279 9.2848
3.5300 8.8266 5.3446 9.3339
3.5466 8.8746 5.3612 9.3819
3.5634 8.9237 5.3780 9.4310
3.5800 8.9725 5.3946 9.4798
3.5967 9.0208 5.4113 9.5281
3.6133 9.0781 5.4279 9.5854
3.6300 9.1388 5.4446 9.6461
3.6466 9.2028 5.4612 9.7102
3.6634 9.2666 5.4780 9.7740
3.6800 9.3288 5.4946 9.8361
3.6967 9.3926 5.5113 9.8999
3.7133 9.4564 5.5279 9.9637
3.7300 9.5188 5.5446 10.0261
3.7466 9.5834 5.5612 10.0907
3.7633 9.6465 5.5779 10.1539
3.7799 9.7114 5.5945 10.2188
3.7966 9.7790 5.6112 10.2863
3.8133 9.8471 5.6279 10.3544
3.8300 9.9168 5.6446 10.4241
3.8467 9.9855 5.6613 10.4928
3.8634 10.0542 5.6780 10.5616
3.8800 10.1230 5.6946 10.6303
3.8966 10.1928 5.7112 10.7001
3.9132 10.2614 5.7278 10.7687
3.9300 10.3326 5.7446 10.8399
3.9466 10.4034 5.7612 10.9107
3.9634 10.4774 5.7780 10.9848
3.9800 10.5611 5.7946 11.0684
3.9967 10.6486 5.8113 11.1559
4.0133 10.7377 5.8279 11.2450
4.0300 10.8303 5.8446 11.3376
4.0466 10.9222 5.8612 11.4296
4.0634 11.0145 5.8780 11.5218
4.0800 11.1060 5.8946 11.6133
4.0966 11.2006 5.9112 11.7079
4.1133 11.2966 5.9279 11.8039
4.1300 11.3965 5.9446 11.9038
4.1466 11.4977 5.9612 12.0050
4.1633 11.6025 5.9779 12.1098
4.1799 11.7037 5.9945 12.2110
4.1966 11.8072 6.0112 12.3145
4.2133 11.9110 6.0279 12.4183
4.2300 12.0165 6.0446 12.5238
4.2466 12.1238 6.0612 12.6311
4.2634 12.2321 6.0780 12.7394
4.2800 12.3417 6.0946 12.8490
4.2966 12.4557 6.1112 12.9630
4.3133 12.5693 6.1279 13.0766
4.3300 12.6846 6.1446 13.1920
4.3466 12.7995 6.1612 13.3068
4.3633 12.9181 6.1779 13.4254
4.3800 13.0452 6.1946 13.5526
4.3967 13.1729 6.2113 13.6803
4.4133 13.3012 6.2279 13.8085
4.4300 13.4339 6.2446 13.9412
4.4466 13.5663 6.2612 14.0737
4.4633 13.7022 6.2779 14.2095
4.4800 13.8394 6.2946 14.3467
4.4967 13.9794 6.3113 14.4867
4.5133 14.1201 6.3279 14.6275
4.5300 14.2633 6.3446 14.7706
4.5466 14.4060 6.3612 14.9133
4.5633 14.5530 6.3779 15.0603
4.5800 14.6999 6.3946 15.2072
4.5966 14.8475 6.4112 15.3548
4.6133 15.0009 6.4279 15.5082
4.6300 15.1592 6.4446 15.6665
4.6467 15.3267 6.4613 15.8341
4.6634 15.5031 6.4780 16.0105
4.6800 15.6741 6.4946 16.1814
4.6966 15.8559 6.5112 16.3632
4.7133 16.0403 6.5279 16.5477
4.7300 16.2233 6.5446 16.7307
4.7466 16.4135 6.5612 16.9208
4.7634 16.6051 6.5780 17.1124
4.7800 16.8010 6.5946 17.3084
4.7966 17.0036 6.6112 17.5109
4.8133 17.2075 6.6279 17.7149
4.8300 17.4207 6.6446 17.9280
4.8466 17.6376 6.6612 18.1449
4.8633 17.8579 6.6779 18.3653
4.8799 18.0861 6.6945 18.5934
4.8967 18.3208 6.7113 18.8281
4.9133 18.5569 6.7279 19.0643
4.9300 18.8001 6.7446 19.3075
4.9467 19.0433 6.7613 19.5506
4.9634 19.2927 6.7780 19.8000
4.9766 19.4927 6.7912 20.0000
4.9766 19.4932 6.7912 20.0005
4.9607 19.3025 6.7753 19.8098
4.9504 19.0524 6.7650 19.5598
4.9407 18.8019 6.7553 19.3092
4.9307 18.5513 6.7453 19.0587
4.9204 18.3006 6.7350 18.8079
4.9098 18.0506 6.7244 18.5579
4.8986 17.8000 6.7132 18.3073
4.8871 17.5498 6.7017 18.0571
4.8754 17.2993 6.6900 17.8066
4.8634 17.0491 6.6780 17.5564
4.8506 16.7989 6.6652 17.3062
4.8377 16.5484 6.6523 17.0558
4.8245 16.2983 6.6391 16.8056
4.8106 16.0481 6.6252 16.5554
4.7962 15.7978 6.6108 16.3051
4.7815 15.5473 6.5961 16.0546
4.7662 15.2969 6.5808 15.8042
4.7506 15.0467 6.5652 15.5541
4.7345 14.7965 6.5491 15.3038
4.7180 14.5460 6.5326 15.0533
4.7014 14.2957 6.5160 14.8030
4.6847 14.0497 6.4993 14.5571
4.6680 13.8121 6.4826 14.3194
4.6513 13.5763 6.4659 14.0836
4.6347 13.3506 6.4493 13.8580
4.6180 13.1321 6.4326 13.6395
4.6013 12.9208 6.4159 13.4282
4.5847 12.7224 6.3993 13.2297
4.5680 12.5251 6.3826 13.0324
4.5513 12.3278 6.3659 12.8351
4.5347 12.1364 6.3493 12.6437
4.5180 11.9431 6.3326 12.4505
4.5013 11.7560 6.3159 12.2633
4.4847 11.5755 6.2993 12.0829
4.4680 11.3975 6.2826 11.9048
4.4513 11.2253 6.2659 11.7326
4.4346 11.0555 6.2492 11.5629
4.4180 10.8881 6.2326 11.3954
4.4013 10.7301 6.2159 11.2374
4.3846 10.5757 6.1992 11.0830
4.3680 10.4266 6.1826 10.9340
4.3514 10.2810 6.1660 10.7884
4.3347 10.1396 6.1493 10.6469
4.3180 10.0022 6.1326 10.5095
4.3014 9.8693 6.1160 10.3766
4.2847 9.7375 6.0993 10.2448
4.2680 9.6093 6.0826 10.1166
4.2513 9.4837 6.0659 9.9910
4.2346 9.3598 6.0492 9.8672
4.2180 9.2428 6.0326 9.7501
4.2013 9.1291 6.0159 9.6364
4.1846 9.0216 5.9992 9.5289
4.1680 8.9195 5.9826 9.4268
4.1514 8.8151 5.9660 9.3224
4.1346 8.7156 5.9492 9.2229
4.1180 8.6161 5.9326 9.1234
4.1013 8.5192 5.9159 9.0265
4.0846 8.4266 5.8992 8.9339
4.0680 8.3336 5.8826 8.8409
4.0513 8.2427 5.8659 8.7500
4.0347 8.1559 5.8493 8.6632
4.0180 8.0689 5.8326 8.5763
4.0013 7.9836 5.8159 8.4909
3.9846 7.9016 5.7992 8.4089
3.9680 7.8204 5.7826 8.3277
3.9513 7.7421 5.7659 8.2494
3.9346 7.6703 5.7492 8.1776
3.9180 7.5971 5.7326 8.1044
3.9013 7.5267 5.7159 8.0340
3.8847 7.4565 5.6993 7.9638
3.8680 7.3860 5.6826 7.8933
3.8513 7.3189 5.6659 7.8262
3.8346 7.2487 5.6492 7.7560
3.8180 7.1822 5.6326 7.6895
3.8013 7.1169 5.6159 7.6242
3.7846 7.0514 5.5992 7.5587
3.7680 6.9881 5.5826 7.4954
3.7514 6.9256 5.5660 7.4329
3.7346 6.8630 5.5492 7.3703
3.7180 6.8024 5.5326 7.3097
3.7013 6.7405 5.5159 7.2478
3.6846 6.6792 5.4992 7.1865
3.6680 6.6207 5.4826 7.1281
3.6513 6.5624 5.4659 7.0697
3.6346 6.5045 5.4492 7.0118
3.6180 6.4487 5.4326 6.9560
3.6013 6.3941 5.4159 6.9014
3.5847 6.3445 5.3993 6.8518
3.5680 6.2940 5.3826 6.8013
3.5513 6.2438 5.3659 6.7511
3.5346 6.1950 5.3492 6.7023
3.5180 6.1439 5.3326 6.6512
3.5013 6.0949 5.3159 6.6022
3.4847 6.0467 5.2993 6.5540
3.4680 5.9985 5.2826 6.5059
3.4513 5.9503 5.2659 6.4576
3.4346 5.9023 5.2492 6.4096
3.4180 5.8528 5.2326 6.3601
3.4013 5.8054 5.2159 6.3127
3.3847 5.7576 5.1993 6.2649
3.3680 5.7108 5.1826 6.2181
3.3514 5.6639 5.1660 6.1712
3.3346 5.6162 5.1492 6.1235
3.3180 5.5689 5.1326 6.0762
3.3013 5.5223 5.1159 6.0296
3.2846 5.4761 5.0992 5.9834
3.2680 5.4305 5.0826 5.9378
3.2513 5.3838 5.0659 5.8911
3.2346 5.3366 5.0492 5.8439
3.2180 5.2913 5.0326 5.7986
3.2013 5.2455 5.0159 5.7528
3.1847 5.2002 4.9993 5.7075
3.1680 5.1549 4.9826 5.6622
3.1513 5.1093 4.9659 5.6166
3.1346 5.0639 4.9492 5.5712
3.1180 5.0188 4.9326 5.5261
3.1013 4.9740 4.9159 5.4813
3.0847 4.9311 4.8993 5.4385
3.0680 4.8876 4.8826 5.3949
3.0514 4.8441 4.8660 5.3514
3.0346 4.8006 4.8492 5.3079
3.0180 4.7567 4.8326 5.2640
3.0013 4.7129 4.8159 5.2202
2.9846 4.6700 4.7992 5.1773
2.9680 4.6273 4.7826 5.1346
2.9513 4.5846 4.7659 5.0919
2.9346 4.5424 4.7492 5.0497
2.9180 4.4995 4.7326 5.0068
2.9013 4.4567 4.7159 4.9640
2.8846 4.4151 4.6992 4.9224
2.8680 4.3723 4.6826 4.8796
2.8513 4.3307 4.6659 4.8380
2.8347 4.2880 4.6493 4.7953
2.8180 4.2483 4.6326 4.7557
2.8013 4.2078 4.6159 4.7151
2.7847 4.1671 4.5993 4.6744
2.7680 4.1259 4.5826 4.6332
2.7513 4.0866 4.5659 4.5939
2.7346 4.0447 4.5492 4.5521
2.7180 4.0050 4.5326 4.5123
2.7013 3.9637 4.5159 4.4710
2.6846 3.9241 4.4992 4.4314
2.6680 3.8848 4.4826 4.3921
2.6513 3.8451 4.4659 4.3524
2.6346 3.8064 4.4492 4.3138
2.6180 3.7678 4.4326 4.2751
2.6013 3.7295 4.4159 4.2368
2.5847 3.6921 4.3993 4.1994
2.5680 3.6542 4.3826 4.1615
2.5513 3.6159 4.3659 4.1232
2.5346 3.5781 4.3492 4.0854
2.5180 3.5387 4.3326 4.0460
2.5013 3.5012 4.3159 4.0085
2.4846 3.4644 4.2992 3.9717
2.4680 3.4281 4.2826 3.9354
2.4513 3.3911 4.2659 3.8984
2.4347 3.3554 4.2493 3.8627
2.4180 3.3185 4.2326 3.8258
2.4014 3.2827 4.2160 3.7900
2.3847 3.2462 4.1993 3.7535
2.3680 3.2112 4.1826 3.7185
2.3513 3.1743 4.1659 3.6817
2.3346 3.1383 4.1492 3.6456
2.3180 3.1023 4.1326 3.6096
2.3014 3.0667 4.1160 3.5741
2.2847 3.0312 4.0993 3.5386
2.2680 2.9966 4.0826 3.5039
2.2513 2.9597 4.0659 3.4670
2.2347 2.9241 4.0493 3.4314
2.2180 2.8883 4.0326 3.3956
2.2014 2.8531 4.0160 3.3604
2.1846 2.8178 3.9992 3.3251
2.1680 2.7836 3.9826 3.2909
2.1513 2.7482 3.9659 3.2555
2.1347 2.7144 3.9493 3.2217
2.1180 2.6792 3.9326 3.1865
2.1014 2.6443 3.9160 3.1516
2.0846 2.6103 3.8992 3.1176
2.0680 2.5757 3.8826 3.0830
2.0513 2.5408 3.8659 3.0482
2.0347 2.5066 3.8493 3.0139
2.0180 2.4722 3.8326 2.9795
2.0013 2.4376 3.8159 2.9449
1.9846 2.4047 3.7992 2.9120
1.9680 2.3716 3.7826 2.8789
1.9513 2.3390 3.7659 2.8463
1.9346 2.3062 3.7492 2.8135
1.9180 2.2726 3.7326 2.7799
1.9014 2.2399 3.7160 2.7472
1.8846 2.2065 3.6992 2.7138
1.8680 2.1737 3.6826 2.6810
1.8513 2.1411 3.6659 2.6484
1.8347 2.1078 3.6493 2.6152
1.8180 2.0739 3.6326 2.5812
1.8013 2.0422 3.6159 2.5495
1.7846 2.0088 3.5992 2.5161
1.7680 1.9781 3.5826 2.4854
1.7513 1.9459 3.5659 2.4532
1.7347 1.9140 3.5493 2.4213
1.7180 1.8830 3.5326 2.3904
1.7014 1.8508 3.5160 2.3581
1.6846 1.8182 3.4992 2.3256
1.6680 1.7881 3.4826 2.2955
1.6513 1.7562 3.4659 2.2635
1.6346 1.7263 3.4492 2.2336
1.6180 1.6953 3.4326 2.2026
1.6013 1.6645 3.4159 2.1718
1.5846 1.6352 3.3992 2.1425
1.5680 1.6045 3.3826 2.1118
1.5513 1.5742 3.3659 2.0816
1.5346 1.5442 3.3492 2.0515
1.5180 1.5138 3.3326 2.0211
1.5013 1.4833 3.3159 1.9906
1.4846 1.4537 3.2992 1.9610
1.4680 1.4251 3.2826 1.9324
1.4513 1.3969 3.2659 1.9043
1.4346 1.3669 3.2492 1.8742
1.4180 1.3375 3.2326 1.8448
1.4013 1.3088 3.2159 1.8161
1.3846 1.2802 3.1992 1.7875
1.3680 1.2521 3.1826 1.7594
1.3513 1.2251 3.1659 1.7324
1.3346 1.1979 3.1492 1.7052
1.3180 1.1696 3.1326 1.6769
1.3013 1.1422 3.1159 1.6495
1.2847 1.1144 3.0993 1.6217
1.2680 1.0868 3.0826 1.5941
1.2513 1.0590 3.0659 1.5663
1.2346 1.0304 3.0492 1.5377
1.2180 1.0026 3.0326 1.5099
1.2013 0.9751 3.0159 1.4824
1.1847 0.9487 2.9993 1.4560
1.1680 0.9223 2.9826 1.4296
1.1513 0.8942 2.9659 1.4015
1.1346 0.8680 2.9492 1.3754
1.1180 0.8413 2.9326 1.3486
1.1013 0.8143 2.9159 1.3216
1.0847 0.7881 2.8993 1.2954
1.0680 0.7616 2.8826 1.2689
1.0514 0.7340 2.8660 1.2413
1.0346 0.7086 2.8492 1.2159
1.0180 0.6820 2.8326 1.1893
1.0013 0.6556 2.8159 1.1629
0.9847 0.6300 2.7993 1.1374
0.9680 0.6038 2.7826 1.1111
0.9513 0.5774 2.7659 1.0848
0.9346 0.5525 2.7492 1.0598
0.9180 0.5264 2.7326 1.0337
0.9013 0.5022 2.7159 1.0095
0.8847 0.4777 2.6993 0.9850
0.8680 0.4526 2.6826 0.9599
0.8513 0.4285 2.6659 0.9359
0.8346 0.4045 2.6492 0.9118
0.8180 0.3801 2.6326 0.8875
0.8013 0.3564 2.6159 0.8637
0.7847 0.3336 2.5993 0.8409
0.7680 0.3112 2.5826 0.8185
0.7514 0.2875 2.5660 0.7948
0.7346 0.2646 2.5492 0.7719
0.7180 0.2429 2.5326 0.7502
0.7013 0.2203 2.5159 0.7276
0.6847 0.1986 2.4993 0.7059
0.6680 0.1790 2.4826 0.6863
0.6514 0.1592 2.4660 0.6665
0.6346 0.1393 2.4492 0.6466
0.6180 0.1195 2.4326 0.6268
0.6013 0.0998 2.4159 0.6071
0.5846 0.0822 2.3992 0.5895
0.5680 0.0644 2.3826 0.5717
0.5513 0.0482 2.3659 0.5556
0.5346 0.0313 2.3492 0.5386
0.5180 0.0145 2.3326 0.5219
0.5013 -0.0015 2.3159 0.5058
0.4847 -0.0171 2.2993 0.4902
0.4680 -0.0334 2.2826 0.4740
0.4513 -0.0489 2.2659 0.4584
0.4346 -0.0632 2.2492 0.4441
0.4180 -0.0784 2.2326 0.4289
0.4013 -0.0925 2.2159 0.4148
0.3847 -0.1071 2.1993 0.4002
0.3844 -0.1073 2.1990 0.4000
0.3844 -0.1073 2.1990 0.4000
0.3844 -0.1073 2.1990 0.4000
0.4002 -0.0953 2.2148 0.4120
0.4176 -0.0644 2.2322 0.4429
0.4344 -0.0307 2.2490 0.4766
0.4511 0.0018 2.2657 0.5091
0.4677 0.0335 2.2823 0.5408
0.4844 0.0670 2.2990 0.5743
0.5010 0.1004 2.3156 0.6077
0.5177 0.1340 2.3323 0.6413
0.5343 0.1697 2.3489 0.6770
0.5510 0.2033 2.3656 0.7106
0.5677 0.2362 2.3823 0.7435
0.5844 0.2713 2.3990 0.7787
0.6010 0.3067 2.4156 0.8140
0.6178 0.3428 2.4324 0.8501
0.6344 0.3788 2.4490 0.8861
0.6510 0.4142 2.4656 0.9215
0.6676 0.4499 2.4822 0.9572
0.6844 0.4866 2.4990 0.9939
0.7010 0.5249 2.5156 1.0323
0.7178 0.5629 2.5324 1.0702
0.7344 0.6011 2.5490 1.1085
0.7511 0.6403 2.5657 1.1477
0.7677 0.6787 2.5823 1.1860
0.7844 0.7178 2.5990 1.2251
0.8010 0.7572 2.6156 1.2645
0.8177 0.7954 2.6323 1.3027
0.8344 0.8358 2.6490 1.3431
0.8511 0.8755 2.6657 1.3828
0.8677 0.9156 2.6823 1.4229
0.8844 0.9555 2.6990 1.4628
0.9011 0.9935 2.7157 1.5008
0.9177 1.0327 2.7323 1.5400
0.9344 1.0731 2.7490 1.5804
0.9510 1.1126 2.7656 1.6200
0.9676 1.1528 2.7822 1.6601
0.9844 1.1957 2.7990 1.7030
1.0010 1.2368 2.8156 1.7441
1.0177 1.2794 2.8323 1.7867
1.0344 1.3228 2.8490 1.8301
1.0510 1.3653 2.8656 1.8726
1.0677 1.4084 2.8823 1.9157
1.0844 1.4510 2.8990 1.9583
1.1010 1.4945 2.9156 2.0018
1.1177 1.5380 2.9323 2.0453
1.1344 1.5807 2.9490 2.0880
1.1510 1.6238 2.9656 2.1311
1.1677 1.6679 2.9823 2.1752
1.1844 1.7103 2.9990 2.2176
1.2010 1.7537 3.0156 2.2610
1.2177 1.7973 3.0323 2.3046
1.2343 1.8392 3.0489 2.3465
1.2511 1.8837 3.0657 2.3910
1.2678 1.9267 3.0824 2.4340
1.2844 1.9693 3.0990 2.4767
1.3010 2.0128 3.1156 2.5201
1.3177 2.0557 3.1323 2.5630
1.3344 2.1004 3.1490 2.6077
1.3510 2.1449 3.1656 2.6522
1.3677 2.1871 3.1823 2.6944
1.3844 2.2314 3.1990 2.7387
1.4011 2.2736 3.2157 2.7809
1.4177 2.3166 3.2323 2.8239
1.4344 2.3608 3.2490 2.8681
1.4511 2.4052 3.2657 2.9125
1.4677 2.4498 3.2823 2.9571
1.4843 2.4931 3.2989 3.0005
1.5010 2.5379 3.3156 3.0452
1.5177 2.5839 3.3323 3.0913
1.5344 2.6286 3.3490 3.1360
1.5510 2.6731 3.3656 3.1804
1.5678 2.7176 3.3824 3.2249
1.5844 2.7619 3.3990 3.2692
1.6010 2.8054 3.4156 3.3128
1.6177 2.8501 3.4323 3.3575
1.6344 2.8947 3.4490 3.4020
1.6510 2.9396 3.4656 3.4469
1.6678 2.9863 3.4824 3.4936
1.6844 3.0307 3.4990 3.5380
1.7011 3.0762 3.5157 3.5835
1.7177 3.1220 3.5323 3.6293
1.7344 3.1654 3.5490 3.6728
1.7510 3.2111 3.5656 3.7184
1.7677 3.2565 3.5823 3.7638
1.7844 3.3037 3.5990 3.8111
1.8011 3.3517 3.6157 3.8590
1.8177 3.3987 3.6323 3.9061
1.8344 3.4482 3.6490 3.9555
1.8511 3.4977 3.6657 4.0051
1.8677 3.5470 3.6823 4.0543
1.8844 3.5964 3.6990 4.1037
1.9011 3.6455 3.7157 4.1529
1.9177 3.6941 3.7323 4.2015
1.9344 3.7451 3.7490 4.2524
1.9511 3.7932 3.7657 4.3005
1.9678 3.8421 3.7824 4.3494
1.9844 3.8921 3.7990 4.3994
2.0010 3.9410 3.8156 4.4484
2.0177 3.9913 3.8323 4.4986
2.0344 4.0420 3.8490 4.5493
2.0510 4.0918 3.8656 4.5991
2.0678 4.1432 3.8824 4.6505
2.0844 4.1920 3.8990 4.6994
2.1011 4.2419 3.9157 4.7492
2.1177 4.2945 3.9323 4.8018
2.1344 4.3448 3.9490 4.8521
2.1510 4.3964 3.9656 4.9037
2.1678 4.4481 3.9824 4.9554
2.1844 4.4985 3.9990 5.0058
2.2011 4.5499 4.0157 5.0572
2.2177 4.6006 4.0323 5.1079
2.2344 4.6511 4.0490 5.1584
2.2510 4.7012 4.0656 5.2085
2.2677 4.7516 4.0823 5.2590
2.2843 4.8018 4.0989 5.3091
2.3010 4.8533 4.1156 5.3606
2.3176 4.9048 4.1322 5.4121
2.3344 4.9566 4.1490 5.4639
2.3511 5.0083 4.1657 5.5156
2.3678 5.0596 4.1824 5.5669
2.3844 5.1106 4.1990 5.6179
2.4010 5.1615 4.2156 5.6688
2.4177 5.2118 4.2323 5.7191
2.4344 5.2632 4.2490 5.7705
2.4510 5.3130 4.2656 5.8203
2.4677 5.3655 4.2823 5.8728
2.4844 5.4164 4.2990 5.9237
2.5011 5.4680 4.3157 5.9753
2.5177 5.5192 4.3323 6.0265
2.5344 5.5719 4.3490 6.0792
2.5510 5.6233 4.3656 6.1306
2.5677 5.6746 4.3823 6.1819
2.5843 5.7247 4.3989 6.2320
2.6010 5.7765 4.4156 6.2838
2.6177 5.8283 4.4323 6.3357
2.6344 5.8786 4.4490 6.3859
2.6510 5.9309 4.4656 6.4382
2.6677 5.9825 4.4823 6.4898
2.6844 6.0345 4.4990 6.5418
2.7010 6.0871 4.5156 6.5944
2.7176 6.1388 4.5322 6.6461
2.7344 6.1911 4.5490 6.6984
2.7511 6.2433 4.5657 6.7506
2.7678 6.2944 4.5824 6.8017
2.7843 6.3453 4.5989 6.8526
2.8010 6.3985 4.6156 6.9058
2.8177 6.4493 4.6323 6.9566
2.8344 6.5017 4.6490 7.0090
2.8510 6.5529 4.6656 7.0602
2.8678 6.6042 4.6824 7.1116
2.8844 6.6560 4.6990 7.1633
2.9011 6.7078 4.7157 7.2151
2.9177 6.7599 4.7323 7.2672
2.9344 6.8122 4.7490 7.3196
2.9510 6.8639 4.7656 7.3712
2.9677 6.9156 4.7823 7.4229
2.9844 6.9685 4.7990 7.4758
3.0011 7.0215 4.8157 7.5288
3.0177 7.0744 4.8323 7.5817
3.0344 7.1267 4.8490 7.6340
3.0510 7.1769 4.8656 7.6842
3.0677 7.2291 4.8823 7.7364
3.0844 7.2789 4.8990 7.7862
3.1010 7.3291 4.9156 7.8364
3.1177 7.3819 4.9323 7.8892
3.1344 7.4322 4.9490 7.9395
3.1510 7.4858 4.9656 7.9931
3.1678 7.5395 4.9824 8.0468
3.1844 7.5901 4.9990 8.0974
3.2010 7.6419 5.0156 8.1492
3.2177 7.6926 5.0323 8.2000
3.2343 7.7418 5.0489 8.2491
3.2510 7.7933 5.0656 8.3007
3.2677 7.8435 5.0823 8.3508
3.2844 7.8944 5.0990 8.4018
3.3011 7.9463 5.1157 8.4537
3.3177 7.9970 5.1323 8.5043
3.3344 8.0466 5.1490 8.5539
3.3510 8.0964 5.1656 8.6037
3.3677 8.1461 5.1823 8.6534
3.3844 8.1956 5.1990 8.7030
3.4011 8.2450 5.2157 8.7523
3.4177 8.2929 5.2323 8.8002
3.4344 8.3421 5.2490 8.8494
3.4511 8.3905 5.2657 8.8978
3.4677 8.4403 5.2823 8.9476
3.4844 8.4892 5.2990 8.9965
3.5010 8.5379 5.3156 9.0452
3.5177 8.5884 5.3323 9.0957
3.5344 8.6379 5.3490 9.1452
3.5511 8.6871 5.3657 9.1944
3.5677 8.7367 5.3823 9.2440
3.5844 8.7853 5.3990 9.2926
3.6010 8.8331 5.4156 9.3404
3.6177 8.8900 5.4323 9.3973
3.6344 8.9506 5.4490 9.4580
3.6510 9.0145 5.4656 9.5218
3.6677 9.0778 5.4823 9.5851
3.6844 9.1407 5.4990 9.6480
3.7010 9.2062 5.5156 9.7135
3.7177 9.2684 5.5323 9.7758
3.7344 9.3316 5.5490 9.8390
3.7510 9.3966 5.5656 9.9039
3.7677 9.4599 5.5823 9.9672
3.7844 9.5266 5.5990 10.0339
3.8010 9.5948 5.6156 10.1021
3.8178 9.6615 5.6324 10.1688
3.8344 9.7312 5.6490 10.2385
3.8511 9.8003 5.6657 10.3077
3.8677 9.8684 5.6823 10.3757
3.8844 9.9383 5.6990 10.4456
3.9010 10.0066 5.7156 10.5140
3.9177 10.0770 5.7323 10.5843
3.9344 10.1477 5.7490 10.6550
3.9511 10.2184 5.7657 10.7257
3.9677 10.2945 5.7823 10.8018
3.9844 10.3795 5.7990 10.8868
4.0010 10.4674 5.8156 10.9748
4.0177 10.5584 5.8323 11.0657
4.0344 10.6487 5.8490 11.1560
4.0510 10.7409 5.8656 11.2482
4.0677 10.8336 5.8823 11.3409
4.0844 10.9284 5.8990 11.4357
4.1010 11.0243 5.9156 11.5316
4.1178 11.1254 5.9324 11.6327
4.1344 11.2258 5.9490 11.7331
4.1510 11.3271 5.9656 11.8344
4.1677 11.4319 5.9823 11.9392
4.1844 11.5339 5.9990 12.0412
4.2010 11.6381 6.0156 12.1454
4.2178 11.7431 6.0324 12.2504
4.2344 11.8485 6.0490 12.3558
4.2511 11.9571 6.0657 12.4644
4.2677 12.0650 6.0823 12.5724
4.2844 12.1763 6.0990 12.6836
4.3010 12.2915 6.1156 12.7988
4.3177 12.4051 6.1323 12.9124
4.3344 12.5210 6.1490 13.0283
4.3511 12.6372 6.1657 13.1445
4.3677 12.7607 6.1823 13.2680
4.3844 12.8890 6.1990 13.3963
4.4010 13.0176 6.2156 13.5249
4.4177 13.1482 6.2323 13.6555
4.4344 13.2816 6.2490 13.7889
4.4510 13.4155 6.2656 13.9228
4.4676 13.5520 6.2822 14.0593
4.4844 13.6920 6.2990 14.1993
4.5011 13.8320 6.3157 14.3394
4.5177 13.9755 6.3323 14.4828
4.5344 14.1180 6.3490 14.6253
4.5510 14.2637 6.3656 14.7711
4.5677 14.4111 6.3823 14.9185
4.5844 14.5604 6.3990 15.0677
4.6010 14.7098 6.4156 15.2171
4.6178 14.8692 6.4324 15.3765
4.6344 15.0305 6.4490 15.5378
4.6510 15.2031 6.4656 15.7105
4.6677 15.3803 6.4823 15.8876
4.6844 15.5570 6.4990 16.0643
4.7010 15.7412 6.5156 16.2485
4.7177 15.9274 6.5323 16.4348
4.7343 16.1140 6.5489 16.6213
4.7511 16.3092 6.5657 16.8165
4.7678 16.5029 6.5824 17.0102
4.7844 16.7022 6.5990 17.2095
4.8010 16.9076 6.6156 17.4149
4.8177 17.1157 6.6323 17.6230
4.8344 17.3322 6.6490 17.8396
4.8510 17.5521 6.6656 18.0595
4.8677 17.7758 6.6823 18.2831
4.8844 18.0134 6.6990 18.5207
4.9011 18.2497 6.7157 18.7570
4.9177 18.4908 6.7323 18.9981
4.9344 18.7374 6.7490 19.2448
4.9511 18.9840 6.7657 19.4913
4.9677 19.2343 6.7823 19.7416
4.9840 19.4844 6.7986 19.9918
5.0000 19.7349 6.8146 20.2422
5.0158 19.9851 6.8304 20.4924
5.0313 20.2351 6.8459 20.7425
5.0470 20.4855 6.8616 20.9928
5.0622 20.7358 6.8768 21.2431
5.0774 20.9859 6.8920 21.4932
5.0925 21.2359 6.9071 21.7432
5.1074 21.4860 6.9220 21.9933
5.1220 21.7362 6.9366 22.2435
5.1366 21.9867 6.9512 22.4940
5.1509 22.2367 6.9655 22.7440
5.1651 22.4873 6.9797 22.9946
5.1795 22.7376 6.9941 23.2449
5.1936 22.9880 7.0082 23.4953
5.2078 23.2381 7.0224 23.7455
5.2218 23.4883 7.0364 23.9956
5.2356 23.7386 7.0502 24.2459
5.2492 23.9887 7.0638 24.4960
5.2629 24.2387 7.0775 24.7460
5.2767 24.4891 7.0913 24.9964
5.2901 24.7394 7.1047 25.2467
5.3037 24.9895 7.1183 25.4969
5.3170 25.2396 7.1316 25.7469
5.3303 25.4901 7.1449 25.9974
5.3432 25.7405 7.1578 26.2479
5.3565 25.9907 7.1711 26.4980
5.3696 26.2407 7.1842 26.7481
5.3825 26.4908 7.1971 26.9981
5.3955 26.7413 7.2101 27.2486
5.4085 26.9915 7.2231 27.4988
5.4213 27.2417 7.2359 27.7491
5.4340 27.4921 7.2486 27.9994
5.4468 27.7427 7.2614 28.2500
5.4594 27.9932 7.2740 28.5005
5.4719 28.2435 7.2865 28.7508
5.4846 28.4939 7.2992 29.0012
5.4971 28.7443 7.3117 29.2517
5.5096 28.9946 7.3242 29.5020
5.5217 29.2449 7.3363 29.7523
5.5340 29.4953 7.3486 30.0026
5.5461 29.7460 7.3607 30.2533
5.5579 29.9967 7.3725 30.5040
5.5698 30.2471 7.3844 30.7544
5.5818 30.4972 7.3964 31.0045
5.5938 30.7475 7.4084 31.2548
5.6057 30.9977 7.4203 31.5050
5.6178 31.2480 7.4324 31.7554
5.6298 31.4987 7.4444 32.0060
5.6416 31.7487 7.4562 32.2561
5.6533 31.9989 7.4679 32.5062
5.6650 32.2491 7.4796 32.7565
5.6767 32.4997 7.4913 33.0070
5.6883 32.7498 7.5029 33.2571
5.6998 32.9998 7.5144 33.5071
5.7114 33.2503 7.5260 33.7577
5.7229 33.5006 7.5375 34.0079
5.7344 33.7510 7.5490 34.2583
5.7458 34.0013 7.5604 34.5087
5.7573 34.2518 7.5719 34.7591
5.7690 34.5021 7.5836 35.0094
5.7807 34.7527 7.5953 35.2600
5.7922 35.0033 7.6068 35.5106
5.8037 35.2538 7.6183 35.7611
5.8151 35.5043 7.6297 36.0117
5.8264 35.7544 7.6410 36.2617
5.8374 36.0049 7.6520 36.5123
5.8487 36.2553 7.6633 36.7626
5.8600 36.5054 7.6746 37.0127
5.8713 36.7556 7.6859 37.2629
5.8825 37.0058 7.6971 37.5131
5.8938 37.2563 7.7084 37.7636
5.9052 37.5064 7.7198 38.0137
5.9163 37.7567 7.7309 38.2640
5.9275 38.0068 7.7421 38.5142
5.9386 38.2571 7.7532 38.7644
5.9499 38.5077 7.7645 39.0150
5.9612 38.7584 7.7758 39.2657
5.9723 39.0085 7.7869 39.5158
5.9836 39.2591 7.7982 39.7664
5.9947 39.5092 7.8093 40.0165
6.0059 39.7596 7.8205 40.2670
6.0170 40.0101 7.8316 40.5174
6.0282 40.2605 7.8428 40.7678
6.0392 40.5107 7.8538 41.0180
6.0502 40.7610 7.8648 41.2683
6.0610 41.0117 7.8756 41.5190
6.0721 41.2622 7.8867 41.7695
6.0832 41.5125 7.8978 42.0199
6.0942 41.7627 7.9088 42.2700
6.1054 42.0135 7.9200 42.5208
6.1165 42.2637 7.9311 42.7710
6.1277 42.5138 7.9423 43.0212
6.1388 42.7644 7.9534 43.2717
6.1499 43.0147 7.9645 43.5220
6.1610 43.2648 7.9756 43.7721
6.1721 43.5151 7.9867 44.0224
6.1831 43.7655 7.9977 44.2728
6.1943 44.0159 8.0089 44.5233
6.2052 44.2667 8.0198 44.7740
6.2160 44.5173 8.0306 45.0246
6.2268 44.7680 8.0414 45.2753
6.2375 45.0184 8.0521 45.5257
6.2485 45.2686 8.0631 45.7759
6.2595 45.5191 8.0741 46.0264
6.2706 45.7693 8.0852 46.2766
6.2819 46.0199 8.0965 46.5273
6.2930 46.2700 8.1076 46.7773
6.3044 46.5204 8.1190 47.0277
6.3157 46.7708 8.1303 47.2782
6.3268 47.0212 8.1414 47.5285
6.3378 47.2717 8.1524 47.7790
6.3489 47.5223 8.1635 48.0296
6.3599 47.7727 8.1745 48.2800
6.3708 48.0231 8.1854 48.5304
6.3818 48.2732 8.1964 48.7805
6.3928 48.5237 8.2074 49.0311
6.4042 48.7745 8.2188 49.2818
6.4154 49.0248 8.2300 49.5321
6.4266 49.2755 8.2412 49.7829
6.4376 49.5263 8.2522 50.0336
6.4489 49.7765 8.2635 50.2838
6.4600 50.0271 8.2746 50.5344
6.4712 50.2777 8.2858 50.7851
6.4823 50.5284 8.2969 51.0358
6.4934 50.7791 8.3080 51.2864
6.5045 51.0295 8.3191 51.5368
6.5156 51.2800 8.3302 51.7874
6.5266 51.5302 8.3412 52.0375
6.5375 51.7803 8.3521 52.2876
6.5486 52.0306 8.3632 52.5379
6.5595 52.2806 8.3741 52.7879
6.5707 52.5313 8.3853 53.0386
6.5820 52.7817 8.3966 53.2890
6.5932 53.0323 8.4078 53.5396
6.6044 53.2829 8.4190 53.7903
6.6156 53.5334 8.4302 54.0408
6.6268 53.7838 8.4414 54.2911
6.6380 54.0342 8.4526 54.5416
6.6491 54.2850 8.4637 54.7923
6.6601 54.5356 8.4747 55.0429
6.6714 54.7863 8.4860 55.2936
6.6826 55.0364 8.4972 55.5437
6.6936 55.2869 8.5082 55.7942
6.7046 55.5375 8.5192 56.0448
6.7155 55.7875 8.5301 56.2949
6.7266 56.0378 8.5412 56.5451
6.7374 56.2879 8.5520 56.7952
6.7485 56.5381 8.5631 57.0454
6.7596 56.7886 8.5742 57.2959
6.7709 57.0386 8.5855 57.5459
6.7822 57.2888 8.5968 57.7961
6.7934 57.5394 8.6080 58.0467
6.8048 57.7897 8.6194 58.2970
6.8162 58.0398 8.6308 58.5471
6.8274 58.2902 8.6420 58.7976
6.8383 58.5408 8.6529 59.0482
6.8494 58.7911 8.6640 59.2984
6.8605 59.0413 8.6751 59.5486
6.8716 59.2915 8.6862 59.7988
6.8826 59.5420 8.6972 60.0493
6.8937 59.7921 8.7083 60.2994
6.9052 60.0428 8.7198 60.5501
6.9163 60.2933 8.7309 60.8007
6.9276 60.5435 8.7422 61.0509
6.9389 60.7936 8.7535 61.3009
6.9502 61.0439 8.7648 61.5512
6.9615 61.2943 8.7761 61.8016
6.9726 61.5446 8.7872 62.0520
6.9837 61.7948 8.7983 62.3021
6.9948 62.0454 8.8094 62.5528
7.0060 62.2954 8.8206 62.8028
7.0172 62.5458 8.8318 63.0532
7.0285 62.7958 8.8431 63.3032
7.0398 63.0459 8.8544 63.5532
7.0510 63.2963 8.8656 63.8036
7.0623 63.5465 8.8769 64.0539
7.0735 63.7972 8.8881 64.3045
7.0850 64.0478 8.8996 64.5552
7.0962 64.2983 8.9108 64.8057
7.1075 64.5489 8.9221 65.0562
7.1188 64.7993 8.9334 65.3066
7.1302 65.0497 8.9448 65.5570
7.1416 65.3003 8.9562 65.8076
7.1529 65.5504 8.9675 66.0577
7.1643 65.8009 8.9789 66.3082
7.1759 66.0514 8.9905 66.5587
7.1875 66.3015 9.0021 66.8088
7.1990 66.5518 9.0136 67.0591
7.2107 66.8020 9.0253 67.3094
7.2223 67.0528 9.0369 67.5601
7.2337 67.3030 9.0483 67.8103
7.2452 67.5530 9.0598 68.0603
7.2569 67.8031 9.0715 68.3104
7.2685 68.0533 9.0831 68.5606
7.2802 68.3033 9.0948 68.8106
7.2916 68.5536 9.1062 69.0609
7.3033 68.8037 9.1179 69.3110
7.3149 69.0543 9.1295 69.5616
7.3264 69.3044 9.1410 69.8117
7.3378 69.5548 9.1524 70.0622
7.3495 69.8050 9.1641 70.3124
7.3610 70.0558 9.1756 70.5631
7.3727 70.3063 9.1873 70.8136
7.3842 70.5567 9.1988 71.0640
7.3956 70.8072 9.2102 71.3145
7.4072 71.0573 9.2218 71.5646
7.4189 71.3075 9.2335 71.8148
7.4303 71.5577 9.2449 72.0650
7.4421 71.8080 9.2567 72.3153
7.4538 72.0582 9.2684 72.5655
7.4655 72.3087 9.2801 72.8160
7.4773 72.5590 9.2919 73.0663
7.4892 72.8090 9.3038 73.3163
7.5011 73.0597 9.3157 73.5670
7.5130 73.3098 9.3276 73.8171
7.5249 73.5602 9.3395 74.0675
7.5367 73.8106 9.3513 74.3180
7.5484 74.0607 9.3630 74.5680
7.5596 74.3108 9.3742 74.8181
7.5710 74.5614 9.3856 75.0687
7.5826 74.8120 9.3972 75.3193
7.5944 75.0623 9.4090 75.5696
7.6061 75.3125 9.4207 75.8198
7.6180 75.5627 9.4326 76.0700
7.6300 75.8128 9.4446 76.3201
7.6421 76.0629 9.4567 76.5702
7.6539 76.3135 9.4685 76.8208
7.6657 76.5638 9.4803 77.0711
7.6775 76.8139 9.4921 77.3213
7.6890 77.0640 9.5036 77.5713
7.7007 77.3145 9.5153 77.8218
7.7126 77.5648 9.5272 78.0721
7.7241 77.8153 9.5387 78.3226
7.7358 78.0654 9.5504 78.5727
7.7476 78.3154 9.5622 78.8227
7.7595 78.5659 9.5741 79.0732
7.7714 78.8160 9.5860 79.3234
7.7834 79.0665 9.5980 79.5738
7.7954 79.3168 9.6100 79.8241
7.8075 79.5669 9.6221 80.0742
7.8196 79.8170 9.6342 80.3243
7.8314 80.0671 9.6460 80.5744
7.8430 80.3142 9.6576 80.8216
